onset	duration	eventnumber	sequencenumber	condition	streamnumber	stimnumber	objectstimnumber	letterstimnumber	objecttarget	lettertarget	is2back	objectstim	letterstim	response	rt	correct	time_stimon	time_stimoff
19598	100	0	0	0	36	0	14	1	0	0	0	stim015_stimuli_original_vehicles_planes_3.png	B	0	0	0	104.346593599999	104.547108399915
19698	100	1	0	0	36	1	4	9	0	0	0	stim005_stimuli_original_animals_fish_1.png	L	0	0	0	104.746580199921	104.946575499955
19798	100	2	0	0	36	2	9	8	0	0	0	stim010_stimuli_original_vehicles_boats_2.png	K	0	0	0	105.146587900002	105.346591299982
19898	100	3	0	0	36	3	5	3	0	0	0	stim006_stimuli_original_animals_fish_2.png	D	0	0	0	105.546597799985	105.746600499959
19998	100	4	0	0	36	4	0	11	0	0	0	stim001_stimuli_original_animals_birds_1.png	R	0	0	0	105.946608499973	106.146608499927
20098	100	5	0	0	36	5	1	13	0	0	0	stim002_stimuli_original_animals_birds_2.png	U	0	0	0	106.346617999952	106.546617499902
20198	100	6	0	0	36	6	10	2	0	0	0	stim011_stimuli_original_vehicles_boats_3.png	C	0	0	0	106.746629399946	106.9466273
20298	100	7	0	0	36	7	7	5	0	0	0	stim008_stimuli_original_animals_fish_4.png	F	0	0	0	107.146641999949	107.346641100012
20398	100	8	0	0	36	8	0	12	1	0	0	stim001_stimuli_original_animals_birds_1.png	T	0	0	0	107.546650699922	107.746650099987
20498	100	9	0	0	36	9	6	15	0	0	0	stim007_stimuli_original_animals_fish_3.png	Y	0	0	0	107.946662199916	108.146660999977
20598	100	10	0	0	36	10	0	13	1	1	1	stim001_stimuli_original_animals_birds_1.png	U	0	0	0	108.346683199983	108.546671899967
20698	100	11	0	0	36	11	11	0	0	0	0	stim012_stimuli_original_vehicles_boats_4.png	A	0	0	0	108.746681599994	108.946680899942
20798	100	12	0	0	36	12	15	13	0	1	0	stim016_stimuli_original_vehicles_planes_4.png	U	0	0	0	109.146692899987	109.346691599931
20898	100	13	0	0	36	13	12	10	0	0	0	stim013_stimuli_original_vehicles_planes_1.png	Q	0	0	0	109.546703599975	109.746701799915
20998	100	14	0	0	36	14	13	4	0	0	0	stim014_stimuli_original_vehicles_planes_2.png	E	0	0	0	109.947005999973	110.14671859995
21098	100	15	0	0	36	15	3	7	0	0	0	stim004_stimuli_original_animals_birds_4.png	J	d	110.538516199915	1	110.346724999952	110.546725299908
21198	100	16	0	0	36	16	2	14	0	0	0	stim003_stimuli_original_animals_birds_3.png	V	0	0	0	110.74673689995	110.946734900004
21298	100	17	0	0	36	17	8	6	0	0	0	stim009_stimuli_original_vehicles_boats_1.png	G	0	0	0	111.14674659993	111.346750699915
21398	100	18	0	0	36	18	6	8	0	0	0	stim007_stimuli_original_animals_fish_3.png	K	0	0	0	111.546756799915	111.74677149998
21498	100	19	0	0	36	19	14	2	0	0	0	stim015_stimuli_original_vehicles_planes_3.png	C	0	0	0	111.946770899929	112.146766499965
21598	100	20	0	0	36	20	7	3	0	0	0	stim008_stimuli_original_animals_fish_4.png	D	0	0	0	112.346778600011	112.54677669995
21698	100	21	0	0	36	21	4	13	0	0	0	stim005_stimuli_original_animals_fish_1.png	U	d	112.747479200014	0	112.746789800003	112.946789399954
21798	100	22	0	0	36	22	10	12	0	0	0	stim011_stimuli_original_vehicles_boats_3.png	T	0	0	0	113.146798699978	113.346798199927
21898	100	23	0	0	36	23	13	15	1	0	0	stim014_stimuli_original_vehicles_planes_2.png	Y	0	0	0	113.546810099971	113.746808999917
21998	100	24	0	0	36	24	0	11	0	0	0	stim001_stimuli_original_animals_birds_1.png	R	0	0	0	113.946821199963	114.146822099923
22098	100	25	0	0	36	25	13	0	1	1	1	stim014_stimuli_original_vehicles_planes_2.png	A	0	0	0	114.346835999982	114.546831499902
22198	100	26	0	0	36	26	15	6	0	0	0	stim016_stimuli_original_vehicles_planes_4.png	G	0	0	0	114.746841499931	114.946842600009
22298	100	27	0	0	36	27	12	0	0	1	0	stim013_stimuli_original_vehicles_planes_1.png	A	d	115.139364499948	1	115.146852899925	115.346853399999
22398	100	28	0	0	36	28	5	7	0	0	0	stim006_stimuli_original_animals_fish_2.png	J	0	0	0	115.546866299934	115.746864199988
22498	100	29	0	0	36	29	2	10	0	0	0	stim003_stimuli_original_animals_birds_3.png	Q	0	0	0	115.946874899906	116.146872299956
22598	100	30	0	0	36	30	13	1	0	0	0	stim014_stimuli_original_vehicles_planes_2.png	B	0	0	0	116.346885700012	116.546883599949
22698	100	31	0	0	36	31	11	0	0	0	0	stim012_stimuli_original_vehicles_boats_4.png	A	0	0	0	116.746898100013	116.94689729996
22798	100	32	0	0	36	32	3	5	0	0	0	stim004_stimuli_original_animals_birds_4.png	F	0	0	0	117.146906399983	117.34690429992
22898	100	33	0	0	36	33	8	9	0	0	0	stim009_stimuli_original_vehicles_boats_1.png	L	0	0	0	117.546918799984	117.746916299919
22998	100	34	0	0	36	34	9	4	0	0	0	stim010_stimuli_original_vehicles_boats_2.png	E	0	0	0	117.946927099954	118.146928899921
23098	100	35	0	0	36	35	1	14	0	0	0	stim002_stimuli_original_animals_birds_2.png	V	0	0	0	118.34693869995	118.546938999905
23773	100	36	1	1	21	0	4	15	0	0	0	stim005_stimuli_original_animals_fish_1.png	Y	0	0	0	121.047040199977	121.247020500014
23873	100	37	1	1	21	1	13	10	0	0	0	stim014_stimuli_original_vehicles_planes_2.png	Q	0	0	0	121.447031999938	121.647030399996
23973	100	38	1	1	21	2	3	1	0	0	0	stim004_stimuli_original_animals_birds_4.png	B	0	0	0	121.84704319993	122.047041699989
24073	100	39	1	1	21	3	9	3	0	0	0	stim010_stimuli_original_vehicles_boats_2.png	D	0	0	0	122.24705669994	122.447052299976
24173	100	40	1	1	21	4	11	12	0	0	0	stim012_stimuli_original_vehicles_boats_4.png	T	0	0	0	122.647066499921	122.84706629999
24273	100	41	1	1	21	5	2	6	0	0	0	stim003_stimuli_original_animals_birds_3.png	G	0	0	0	123.047076199902	123.247072799946
24373	100	42	1	1	21	6	12	13	0	0	0	stim013_stimuli_original_vehicles_planes_1.png	U	0	0	0	123.447089599911	123.64708689996
24473	100	43	1	1	21	7	1	14	0	0	0	stim002_stimuli_original_animals_birds_2.png	V	0	0	0	123.847095999983	124.047096299939
24573	100	44	1	1	21	8	7	8	0	0	0	stim008_stimuli_original_animals_fish_4.png	K	0	0	0	124.247107699979	124.447106399923
24673	100	45	1	1	21	9	11	7	1	0	0	stim012_stimuli_original_vehicles_boats_4.png	J	0	0	0	124.647125399904	124.847116599907
24773	100	46	1	1	21	10	10	0	0	0	0	stim011_stimuli_original_vehicles_boats_3.png	A	0	0	0	125.047128099948	125.247132499935
24873	100	47	1	1	21	11	11	9	1	0	0	stim012_stimuli_original_vehicles_boats_4.png	L	0	0	0	125.447139899945	125.647138200002
24973	100	48	1	1	21	12	15	8	0	1	0	stim016_stimuli_original_vehicles_planes_4.png	K	0	0	0	125.847150799935	126.047148299986
25073	100	49	1	1	21	13	5	2	0	0	0	stim006_stimuli_original_animals_fish_2.png	C	0	0	0	126.247159099905	126.447161999997
25173	100	50	1	1	21	14	6	8	0	1	1	stim007_stimuli_original_animals_fish_3.png	K	d	126.639707499999	1	126.647158999927	126.847161200014
25273	100	51	1	1	21	15	0	5	0	0	0	stim001_stimuli_original_animals_birds_1.png	F	0	0	0	127.047170199919	127.247168199974
25373	100	52	1	1	21	16	14	11	0	0	0	stim015_stimuli_original_vehicles_planes_3.png	R	0	0	0	127.447180699906	127.647183399997
25473	100	53	1	1	21	17	8	4	0	0	0	stim009_stimuli_original_vehicles_boats_1.png	E	0	0	0	127.847192299902	128.047194199986
25573	100	54	1	1	21	18	4	8	0	0	0	stim005_stimuli_original_animals_fish_1.png	K	0	0	0	128.247203200008	128.447200699942
25673	100	55	1	1	21	19	11	14	0	0	0	stim012_stimuli_original_vehicles_boats_4.png	V	0	0	0	128.647212299984	128.847211999935
25773	100	56	1	1	21	20	5	0	0	0	0	stim006_stimuli_original_animals_fish_2.png	A	0	0	0	129.047226299997	129.247222499922
25873	100	57	1	1	21	21	8	6	1	0	0	stim009_stimuli_original_vehicles_boats_1.png	G	0	0	0	129.447235199972	129.647232999909
25973	100	58	1	1	21	22	2	5	0	0	0	stim003_stimuli_original_animals_birds_3.png	F	0	0	0	129.847245299956	130.04724320001
26073	100	59	1	1	21	23	8	15	1	0	0	stim009_stimuli_original_vehicles_boats_1.png	Y	0	0	0	130.247253899928	130.447254700004
26173	100	60	1	1	21	24	9	11	0	1	0	stim010_stimuli_original_vehicles_boats_2.png	R	0	0	0	130.647265399923	130.847263499978
26273	100	61	1	1	21	25	0	10	0	0	0	stim001_stimuli_original_animals_birds_1.png	Q	0	0	0	131.047275699908	131.247274799971
26373	100	62	1	1	21	26	7	11	0	1	1	stim008_stimuli_original_animals_fish_4.png	R	0	0	0	131.447289299918	131.647287399974
26473	100	63	1	1	21	27	8	7	0	0	0	stim009_stimuli_original_vehicles_boats_1.png	J	0	0	0	131.847297	132.047297399957
26573.25	100	64	1	1	21	28	14	1	0	0	0	stim015_stimuli_original_vehicles_planes_3.png	B	0	0	0	132.247307999991	132.447306699934
26673.25	100	65	1	1	21	29	13	12	0	0	0	stim014_stimuli_original_vehicles_planes_2.png	T	0	0	0	132.647319399985	132.847317899927
26773.25	100	66	1	1	21	30	6	2	0	0	0	stim007_stimuli_original_animals_fish_3.png	C	0	0	0	133.047330399975	133.247330099926
26873.25	100	67	1	1	21	31	12	11	0	0	0	stim013_stimuli_original_vehicles_planes_1.png	R	0	0	0	133.447337399935	133.647339499905
26973.25	100	68	1	1	21	32	3	9	0	0	0	stim004_stimuli_original_animals_birds_4.png	L	0	0	0	133.847352699959	134.047351699905
27073.25	100	69	1	1	21	33	1	3	0	0	0	stim002_stimuli_original_animals_birds_2.png	D	0	0	0	134.247368599987	134.447360899998
27173.25	100	70	1	1	21	34	10	13	0	0	0	stim011_stimuli_original_vehicles_boats_3.png	U	0	0	0	134.647374099935	134.847371699987
27273.25	100	71	1	1	21	35	15	4	0	0	0	stim016_stimuli_original_vehicles_planes_4.png	E	0	0	0	135.047383199912	135.247382499976
28144	100	72	2	0	17	0	14	1	0	0	0	stim015_stimuli_original_vehicles_planes_3.png	B	0	0	0	138.530851499992	138.730809099972
28244	100	73	2	0	17	1	5	12	0	0	0	stim006_stimuli_original_animals_fish_2.png	T	0	0	0	138.930821199901	139.130819199956
28344	100	74	2	0	17	2	13	10	0	0	0	stim014_stimuli_original_vehicles_planes_2.png	Q	0	0	0	139.330831400002	139.530830099946
28444	100	75	2	0	17	3	10	11	0	0	0	stim011_stimuli_original_vehicles_boats_3.png	R	0	0	0	139.730843199999	139.930839199922
28544	100	76	2	0	17	4	15	6	0	0	0	stim016_stimuli_original_vehicles_planes_4.png	G	0	0	0	140.130852099974	140.330850099912
28644	100	77	2	0	17	5	7	8	0	0	0	stim008_stimuli_original_animals_fish_4.png	K	0	0	0	140.530862699961	140.730862499913
28744	100	78	2	0	17	6	9	14	1	0	0	stim010_stimuli_original_vehicles_boats_2.png	V	0	0	0	140.930873699952	141.130871200003
28844	100	79	2	0	17	7	0	15	0	0	0	stim001_stimuli_original_animals_birds_1.png	Y	0	0	0	141.330884599942	141.530884100008
28944	100	80	2	0	17	8	9	7	1	0	1	stim010_stimuli_original_vehicles_boats_2.png	J	0	0	0	141.730894799926	141.930896300008
29044	100	81	2	0	17	9	4	3	0	0	0	stim005_stimuli_original_animals_fish_1.png	D	0	0	0	142.130908499938	142.330905699986
29144	100	82	2	0	17	10	1	13	0	0	0	stim002_stimuli_original_animals_birds_2.png	U	d	142.737484799931	1	142.53091709991	142.730916399974
29244	100	83	2	0	17	11	3	9	0	0	0	stim004_stimuli_original_animals_birds_4.png	L	0	0	0	142.930928299902	143.13092539995
29344	100	84	2	0	17	12	9	14	0	1	0	stim010_stimuli_original_vehicles_boats_2.png	V	0	0	0	143.330938400002	143.530962699908
29444	100	85	2	0	17	13	2	4	0	0	0	stim003_stimuli_original_animals_birds_3.png	E	0	0	0	143.730948299984	143.930947499932
29544	100	86	2	0	17	14	12	14	0	1	0	stim013_stimuli_original_vehicles_planes_1.png	V	0	0	0	144.130958199967	144.3309708999
29644	100	87	2	0	17	15	6	0	0	0	0	stim007_stimuli_original_animals_fish_3.png	A	0	0	0	144.530976700014	144.730966300005
29744	100	88	2	0	17	16	11	2	0	0	0	stim012_stimuli_original_vehicles_boats_4.png	C	0	0	0	144.930980899953	145.130978600006
29844	100	89	2	0	17	17	8	5	0	0	0	stim009_stimuli_original_vehicles_boats_1.png	F	0	0	0	145.330990999937	145.530991800013
29944	100	90	2	0	17	18	5	8	0	0	0	stim006_stimuli_original_animals_fish_2.png	K	0	0	0	145.731002599932	145.931005399907
30044	100	91	2	0	17	19	2	11	0	0	0	stim003_stimuli_original_animals_birds_3.png	R	0	0	0	146.131012399914	146.331011099974
30144	100	92	2	0	17	20	0	6	0	0	0	stim001_stimuli_original_animals_birds_1.png	G	0	0	0	146.53102549992	146.731020499952
30244	100	93	2	0	17	21	14	12	1	0	0	stim015_stimuli_original_vehicles_planes_3.png	T	0	0	0	146.931032799999	147.131033899961
30344	100	94	2	0	17	22	4	2	0	0	0	stim005_stimuli_original_animals_fish_1.png	C	0	0	0	147.331043599988	147.531042999937
30444	100	95	2	0	17	23	14	9	1	0	1	stim015_stimuli_original_vehicles_planes_3.png	L	0	0	0	147.731055799988	147.931052199914
30544	100	96	2	0	17	24	9	3	0	0	0	stim010_stimuli_original_vehicles_boats_2.png	D	d	148.322859599954	1	148.131066899979	148.331064699916
30644	100	97	2	0	17	25	13	1	0	0	0	stim014_stimuli_original_vehicles_planes_2.png	B	0	0	0	148.53107919998	148.731075799908
30744	100	98	2	0	17	26	3	4	0	0	0	stim004_stimuli_original_animals_birds_4.png	E	0	0	0	148.931088099955	149.13108620001
30844	100	99	2	0	17	27	7	9	0	1	0	stim008_stimuli_original_animals_fish_4.png	L	0	0	0	149.331096799928	149.531095199985
30944	100	100	2	0	17	28	15	0	0	0	0	stim016_stimuli_original_vehicles_planes_4.png	A	0	0	0	149.731106199906	149.931105099968
31044	100	101	2	0	17	29	14	9	0	1	0	stim015_stimuli_original_vehicles_planes_3.png	L	0	0	0	150.131121799932	150.331115999958
31144	100	102	2	0	17	30	8	7	0	0	0	stim009_stimuli_original_vehicles_boats_1.png	J	0	0	0	150.531128700008	150.731131699984
31244	100	103	2	0	17	31	6	15	0	0	0	stim007_stimuli_original_animals_fish_3.png	Y	0	0	0	150.931138999993	151.131138999946
31344	100	104	2	0	17	32	11	10	0	0	0	stim012_stimuli_original_vehicles_boats_4.png	Q	0	0	0	151.331149599981	151.531149399932
31444	100	105	2	0	17	33	10	13	0	0	0	stim011_stimuli_original_vehicles_boats_3.png	U	0	0	0	151.731159799965	151.931160099921
31544	100	106	2	0	17	34	12	5	0	0	0	stim013_stimuli_original_vehicles_planes_1.png	F	0	0	0	152.131171099958	152.331169200013
31644	100	107	2	0	17	35	1	14	0	0	0	stim002_stimuli_original_animals_birds_2.png	V	0	0	0	152.531183899962	152.731180700008
32519	100	108	3	1	4	0	1	7	0	0	0	stim002_stimuli_original_animals_birds_2.png	J	0	0	0	156.031319399946	156.231306099915
32619	100	109	3	1	4	1	2	8	0	0	0	stim003_stimuli_original_animals_birds_3.png	K	0	0	0	156.431315299938	156.631316699903
32719	100	110	3	1	4	2	0	0	0	0	0	stim001_stimuli_original_animals_birds_1.png	A	0	0	0	156.831325699924	157.031326099997
32819	100	111	3	1	4	3	13	1	0	0	0	stim014_stimuli_original_vehicles_planes_2.png	B	0	0	0	157.231323699933	157.4313387
32919	100	112	3	1	4	4	5	13	0	0	0	stim006_stimuli_original_animals_fish_2.png	U	0	0	0	157.631356699974	157.831351400004
33019	100	113	3	1	4	5	6	4	0	0	0	stim007_stimuli_original_animals_fish_3.png	E	0	0	0	158.0313591999	158.231328299968
33119	100	114	3	1	4	6	3	6	0	1	0	stim004_stimuli_original_animals_birds_4.png	G	0	0	0	158.431368999998	158.631368399947
33219	100	115	3	1	4	7	7	12	0	0	0	stim008_stimuli_original_animals_fish_4.png	T	0	0	0	158.831383300014	159.031379599939
33319	100	116	3	1	4	8	15	6	0	1	1	stim016_stimuli_original_vehicles_planes_4.png	G	0	0	0	159.231390899979	159.431390899932
33419.25	100	117	3	1	4	9	12	11	0	0	0	stim013_stimuli_original_vehicles_planes_1.png	R	0	0	0	159.631406800007	159.831403899938
33519.25	100	118	3	1	4	10	7	9	1	0	0	stim008_stimuli_original_animals_fish_4.png	L	0	0	0	160.031413599965	160.231415999937
33619.25	100	119	3	1	4	11	10	3	0	0	0	stim011_stimuli_original_vehicles_boats_3.png	D	0	0	0	160.431430700002	160.631420799997
33719.25	100	120	3	1	4	12	7	6	1	0	0	stim008_stimuli_original_animals_fish_4.png	G	0	0	0	160.831450599944	161.031420999905
33819.25	100	121	3	1	4	13	14	5	0	0	0	stim015_stimuli_original_vehicles_planes_3.png	F	0	0	0	161.231446099933	161.431457599974
33919.25	100	122	3	1	4	14	9	15	0	0	0	stim010_stimuli_original_vehicles_boats_2.png	Y	0	0	0	161.631444099941	161.831434199936
34019.25	100	123	3	1	4	15	8	10	0	0	0	stim009_stimuli_original_vehicles_boats_1.png	Q	0	0	0	162.03144739999	162.231433999958
34119.25	100	124	3	1	4	16	4	2	0	0	0	stim005_stimuli_original_animals_fish_1.png	C	0	0	0	162.431447700015	162.631446399959
34219.25	100	125	3	1	4	17	11	14	0	0	0	stim012_stimuli_original_vehicles_boats_4.png	V	0	0	0	162.831456799991	163.031455999939
34319.25	100	126	3	1	4	18	14	11	0	0	0	stim015_stimuli_original_vehicles_planes_3.png	R	0	0	0	163.23146749998	163.431464799913
34419.25	100	127	3	1	4	19	2	4	0	0	0	stim003_stimuli_original_animals_birds_3.png	E	0	0	0	163.631480099983	163.831476599909
34519.25	100	128	3	1	4	20	10	8	0	0	0	stim011_stimuli_original_vehicles_boats_3.png	K	0	0	0	164.031490099966	164.231487200013
34619.25	100	129	3	1	4	21	15	9	0	0	0	stim016_stimuli_original_vehicles_planes_4.png	L	0	0	0	164.431499999948	164.631497499999
34719.25	100	130	3	1	4	22	5	14	0	0	0	stim006_stimuli_original_animals_fish_2.png	V	0	0	0	164.83150989993	165.031511500012
34819.25	100	131	3	1	4	23	6	7	0	1	0	stim007_stimuli_original_animals_fish_3.png	J	0	0	0	165.231520899921	165.431521599996
34919.25	100	132	3	1	4	24	3	10	0	0	0	stim004_stimuli_original_animals_birds_4.png	Q	d	165.624142799992	0	165.631532299914	165.831530999974
35019.25	100	133	3	1	4	25	9	7	0	1	1	stim010_stimuli_original_vehicles_boats_2.png	J	0	0	0	166.031542799901	166.231541699963
35119.25	100	134	3	1	4	26	11	12	0	0	0	stim012_stimuli_original_vehicles_boats_4.png	T	0	0	0	166.431553300004	166.631551299943
35219.25	100	135	3	1	4	27	6	15	1	0	0	stim007_stimuli_original_animals_fish_3.png	Y	0	0	0	166.831567000016	167.031562599936
35319.25	100	136	3	1	4	28	12	7	0	0	0	stim013_stimuli_original_vehicles_planes_1.png	J	0	0	0	167.231574199977	167.431573199923
35419.25	100	137	3	1	4	29	6	3	1	0	0	stim007_stimuli_original_animals_fish_3.png	D	0	0	0	167.631586899981	167.831583199906
35519.25	100	138	3	1	4	30	4	6	0	0	0	stim005_stimuli_original_animals_fish_1.png	G	0	0	0	168.031593899941	168.231593600009
35619.25	100	139	3	1	4	31	13	5	0	0	0	stim014_stimuli_original_vehicles_planes_2.png	F	0	0	0	168.431607699953	168.631605600007
35719.25	100	140	3	1	4	32	1	13	0	0	0	stim002_stimuli_original_animals_birds_2.png	U	0	0	0	168.831617699936	169.031614699983
35819.25	100	141	3	1	4	33	0	0	0	0	0	stim001_stimuli_original_animals_birds_1.png	A	0	0	0	169.231626999914	169.431629500003
35919.25	100	142	3	1	4	34	8	2	0	0	0	stim009_stimuli_original_vehicles_boats_1.png	C	0	0	0	169.631644699955	169.831638399977
36019.25	100	143	3	1	4	35	7	1	0	0	0	stim008_stimuli_original_animals_fish_4.png	B	0	0	0	170.031648300006	170.231648499961
37448.5	100	144	4	0	33	0	3	5	0	0	0	stim004_stimuli_original_animals_birds_4.png	F	0	0	0	175.74849639996	175.948492299998
37548.5	100	145	4	0	33	1	11	3	0	0	0	stim012_stimuli_original_vehicles_boats_4.png	D	0	0	0	176.14849339996	176.348509699921
37648.5	100	146	4	0	33	2	4	1	0	0	0	stim005_stimuli_original_animals_fish_1.png	B	0	0	0	176.54851569992	176.7485017
37748.5	100	147	4	0	33	3	14	9	0	0	0	stim015_stimuli_original_vehicles_planes_3.png	L	0	0	0	176.948524800013	177.148527699988
37848.5	100	148	4	0	33	4	6	8	1	0	0	stim007_stimuli_original_animals_fish_3.png	K	0	0	0	177.348542599939	177.548534699949
37948.5	100	149	4	0	33	5	0	6	0	1	0	stim001_stimuli_original_animals_birds_1.png	G	0	0	0	177.748546999996	177.948546999949
38048.5	100	150	4	0	33	6	6	0	1	0	1	stim007_stimuli_original_animals_fish_3.png	A	0	0	0	178.148555799969	178.348562799976
38148.5	100	151	4	0	33	7	15	6	0	1	0	stim016_stimuli_original_vehicles_planes_4.png	G	0	0	0	178.548567499965	178.748588899965
38248.5	100	152	4	0	33	8	13	14	0	0	0	stim014_stimuli_original_vehicles_planes_2.png	V	d	178.941111899912	1	178.948580999975	179.148584199953
38348.5	100	153	4	0	33	9	10	13	0	0	0	stim011_stimuli_original_vehicles_boats_3.png	U	0	0	0	179.348589399946	179.548589100013
38448.5	100	154	4	0	33	10	1	2	0	0	0	stim002_stimuli_original_animals_birds_2.png	C	0	0	0	179.748602399952	179.948599299998
38548.5	100	155	4	0	33	11	5	12	0	0	0	stim006_stimuli_original_animals_fish_2.png	T	0	0	0	180.148599599954	180.348613600014
38648.5	100	156	4	0	33	12	6	4	0	0	0	stim007_stimuli_original_animals_fish_3.png	E	0	0	0	180.548623299925	180.748629399925
38748.5	100	157	4	0	33	13	7	11	0	0	0	stim008_stimuli_original_animals_fish_4.png	R	0	0	0	180.948632499902	181.148636500002
38848.5	100	158	4	0	33	14	9	6	0	0	0	stim010_stimuli_original_vehicles_boats_2.png	G	0	0	0	181.348644300015	181.548641399946
38948.5	100	159	4	0	33	15	8	7	0	0	0	stim009_stimuli_original_vehicles_boats_1.png	J	0	0	0	181.748656600015	181.94865149993
39048.5	100	160	4	0	33	16	2	10	0	0	0	stim003_stimuli_original_animals_birds_3.png	Q	0	0	0	182.148663099972	182.348663899931
39148.5	100	161	4	0	33	17	12	15	0	0	0	stim013_stimuli_original_vehicles_planes_1.png	Y	0	0	0	182.54867779999	182.748675599927
39248.5	100	162	4	0	33	18	15	12	0	0	0	stim016_stimuli_original_vehicles_planes_4.png	T	0	0	0	182.94867199997	183.148686499917
39348.5	100	163	4	0	33	19	10	2	0	0	0	stim011_stimuli_original_vehicles_boats_3.png	C	0	0	0	183.34869569994	183.548696300015
39448.5	100	164	4	0	33	20	7	8	0	0	0	stim008_stimuli_original_animals_fish_4.png	K	0	0	0	183.74870659993	183.948705399991
39548.5	100	165	4	0	33	21	6	9	0	0	0	stim007_stimuli_original_animals_fish_3.png	L	0	0	0	184.148715399904	184.34871749999
39648.5	100	166	4	0	33	22	11	7	0	0	0	stim012_stimuli_original_vehicles_boats_4.png	J	0	0	0	184.548729599919	184.748728599981
39748.5	100	167	4	0	33	23	4	6	0	0	0	stim005_stimuli_original_animals_fish_1.png	G	0	0	0	184.9487372	185.148741299985
39848.5	100	168	4	0	33	24	12	5	0	0	0	stim013_stimuli_original_vehicles_planes_1.png	F	0	0	0	185.348750900012	185.548747699941
39948.5	100	169	4	0	33	25	2	1	0	0	0	stim003_stimuli_original_animals_birds_3.png	B	0	0	0	185.748764199903	185.948762299959
40048.5	100	170	4	0	33	26	13	10	0	0	0	stim014_stimuli_original_vehicles_planes_2.png	Q	d	186.141305299941	0	186.148753099958	186.348755399929
40148.5	100	171	4	0	33	27	14	13	0	0	0	stim015_stimuli_original_vehicles_planes_3.png	U	0	0	0	186.548787700012	186.748790299986
40248.5	100	172	4	0	33	28	6	15	1	0	0	stim007_stimuli_original_animals_fish_3.png	Y	0	0	0	186.948799700011	187.148792699911
40348.5	100	173	4	0	33	29	0	6	0	1	0	stim001_stimuli_original_animals_birds_1.png	G	0	0	0	187.348805599962	187.548800799996
40448.5	100	174	4	0	33	30	6	0	1	0	1	stim007_stimuli_original_animals_fish_3.png	A	0	0	0	187.748813699931	187.948812899995
40548.5	100	175	4	0	33	31	8	6	0	1	0	stim009_stimuli_original_vehicles_boats_1.png	G	d	188.340623899945	1	188.148823799915	188.348826300004
40648.5	100	176	4	0	33	32	9	14	0	0	0	stim010_stimuli_original_vehicles_boats_2.png	V	0	0	0	188.548835199908	188.748852299992
40748.5	100	177	4	0	33	33	1	4	0	0	0	stim002_stimuli_original_animals_birds_2.png	E	0	0	0	188.948847999913	189.14884509996
40848.5	100	178	4	0	33	34	3	11	0	0	0	stim004_stimuli_original_animals_birds_4.png	R	0	0	0	189.348857800011	189.548859699978
40948.5	100	179	4	0	33	35	5	3	0	0	0	stim006_stimuli_original_animals_fish_2.png	D	0	0	0	189.748871799908	189.948884099955
41552.75	100	180	5	1	6	0	3	7	0	0	0	stim004_stimuli_original_animals_birds_4.png	J	0	0	0	192.165575699997	192.365584899904
41652.75	100	181	5	1	6	1	8	13	0	0	0	stim009_stimuli_original_vehicles_boats_1.png	U	0	0	0	192.56558309996	192.765583999921
41752.75	100	182	5	1	6	2	11	14	0	0	0	stim012_stimuli_original_vehicles_boats_4.png	V	0	0	0	192.965598599985	193.165594099904
41852.75	100	183	5	1	6	3	7	9	0	0	0	stim008_stimuli_original_animals_fish_4.png	L	0	0	0	193.365607599961	193.565605200012
41952.75	100	184	5	1	6	4	4	6	0	0	0	stim005_stimuli_original_animals_fish_1.png	G	0	0	0	193.765615999931	193.965613799985
42052.75	100	185	5	1	6	5	5	3	0	0	0	stim006_stimuli_original_animals_fish_2.png	D	0	0	0	194.165627599927	194.365624999977
42152.75	100	186	5	1	6	6	10	11	0	1	0	stim011_stimuli_original_vehicles_boats_3.png	R	0	0	0	194.565672799945	194.76563509996
42252.75	100	187	5	1	6	7	14	0	0	0	0	stim015_stimuli_original_vehicles_planes_3.png	A	0	0	0	194.965649799909	195.165646399953
42352.75	100	188	5	1	6	8	0	11	1	1	1	stim001_stimuli_original_animals_birds_1.png	R	0	0	0	195.365682499949	195.565670399927
42452.75	100	189	5	1	6	9	6	1	0	0	0	stim007_stimuli_original_animals_fish_3.png	B	0	0	0	195.765669899993	195.965667499928
42552.75	100	190	5	1	6	10	0	15	1	0	0	stim001_stimuli_original_animals_birds_1.png	Y	0	0	0	196.165678299963	196.365680599934
42652.75	100	191	5	1	6	11	12	11	0	0	0	stim013_stimuli_original_vehicles_planes_1.png	R	0	0	0	196.565692899982	196.765691299923
42752.75	100	192	5	1	6	12	9	2	0	0	0	stim010_stimuli_original_vehicles_boats_2.png	C	d	197.157510599936	1	196.965704499977	197.165728799999
42852.75	100	193	5	1	6	13	2	5	0	0	0	stim003_stimuli_original_animals_birds_3.png	F	0	0	0	197.365714799962	197.565711100004
42952.75	100	194	5	1	6	14	13	8	0	0	0	stim014_stimuli_original_vehicles_planes_2.png	K	0	0	0	197.765751799918	197.965720699984
43052.75	100	195	5	1	6	15	1	4	0	0	0	stim002_stimuli_original_animals_birds_2.png	E	0	0	0	198.165732099907	198.365732899983
43152.75	100	196	5	1	6	16	0	12	0	0	0	stim001_stimuli_original_animals_birds_1.png	T	0	0	0	198.565742900013	198.765746199992
43252.75	100	197	5	1	6	17	15	10	0	0	0	stim016_stimuli_original_vehicles_planes_4.png	Q	0	0	0	198.965754300007	199.165753899957
43352.75	100	198	5	1	6	18	10	15	0	0	0	stim011_stimuli_original_vehicles_boats_3.png	Y	0	0	0	199.365766200004	199.565764299943
43452.75	100	199	5	1	6	19	12	0	0	0	0	stim013_stimuli_original_vehicles_planes_1.png	A	0	0	0	199.765791999991	199.965774399927
43552.75	100	200	5	1	6	20	4	1	0	0	0	stim005_stimuli_original_animals_fish_1.png	B	0	0	0	200.16578749998	200.365789999953
43652.75	100	201	5	1	6	21	8	13	0	0	0	stim009_stimuli_original_vehicles_boats_1.png	U	0	0	0	200.565797299962	200.765795699903
43752.75	100	202	5	1	6	22	5	2	0	0	0	stim006_stimuli_original_animals_fish_2.png	C	0	0	0	200.965807099943	201.165809299913
43852.75	100	203	5	1	6	23	2	9	0	0	0	stim003_stimuli_original_animals_birds_3.png	L	0	0	0	201.365817799931	201.5658176
43952.75	100	204	5	1	6	24	11	12	0	0	0	stim012_stimuli_original_vehicles_boats_4.png	T	0	0	0	201.765829199925	201.965837099939
44052.75	100	205	5	1	6	25	15	0	0	1	0	stim016_stimuli_original_vehicles_planes_4.png	A	0	0	0	202.165841399925	202.365853699972
44152.75	100	206	5	1	6	26	1	6	0	0	0	stim002_stimuli_original_animals_birds_2.png	G	0	0	0	202.565854199929	202.76585039997
44252.75	100	207	5	1	6	27	11	0	1	1	1	stim012_stimuli_original_vehicles_boats_4.png	A	d	203.157655699993	1	202.965866899933	203.165867100004
44352.75	100	208	5	1	6	28	0	14	0	0	0	stim001_stimuli_original_animals_birds_1.png	V	0	0	0	203.365876799915	203.565872399951
44452.75	100	209	5	1	6	29	11	10	1	0	0	stim012_stimuli_original_vehicles_boats_4.png	Q	0	0	0	203.765885900008	203.965881299926
44552.75	100	210	5	1	6	30	3	5	0	0	0	stim004_stimuli_original_animals_birds_4.png	F	0	0	0	204.165892399964	204.365891599911
44652.75	100	211	5	1	6	31	6	4	0	0	0	stim007_stimuli_original_animals_fish_3.png	E	0	0	0	204.56593069993	204.765903799911
44752.75	100	212	5	1	6	32	9	7	0	0	0	stim010_stimuli_original_vehicles_boats_2.png	J	0	0	0	204.965916499961	205.165912099998
44852.75	100	213	5	1	6	33	14	11	0	0	0	stim015_stimuli_original_vehicles_planes_3.png	R	0	0	0	205.365925199934	205.565937399981
44952.75	100	214	5	1	6	34	13	8	0	0	0	stim014_stimuli_original_vehicles_planes_2.png	K	0	0	0	205.765937999939	205.965937000001
45052.75	100	215	5	1	6	35	7	3	0	0	0	stim008_stimuli_original_animals_fish_4.png	D	0	0	0	206.165946099907	206.365945999976
46369.5	100	216	6	0	45	0	3	3	0	0	0	stim004_stimuli_original_animals_birds_4.png	D	0	0	0	211.432754599955	211.632750899997
46469.5	100	217	6	0	45	1	11	14	0	0	0	stim012_stimuli_original_vehicles_boats_4.png	V	0	0	0	211.832764699939	212.032764700009
46569.5	100	218	6	0	45	2	7	15	0	0	0	stim008_stimuli_original_animals_fish_4.png	Y	0	0	0	212.232775099925	212.432773399982
46669.5	100	219	6	0	45	3	8	5	0	0	0	stim009_stimuli_original_vehicles_boats_1.png	F	0	0	0	212.632788399933	212.832784699975
46769.5	100	220	6	0	45	4	1	10	1	0	0	stim002_stimuli_original_animals_birds_2.png	Q	0	0	0	213.032801699941	213.232794599957
46869.5	100	221	6	0	45	5	2	13	0	0	0	stim003_stimuli_original_animals_birds_3.png	U	0	0	0	213.432807400008	213.632804699941
46969.5	100	222	6	0	45	6	1	12	1	0	1	stim002_stimuli_original_animals_birds_2.png	T	0	0	0	213.832816599985	214.03281689994
47069.5	100	223	6	0	45	7	15	2	0	0	0	stim016_stimuli_original_vehicles_planes_4.png	C	d	214.424628200009	1	214.232834499911	214.432828799938
47169.5	100	224	6	0	45	8	5	1	0	0	0	stim006_stimuli_original_animals_fish_2.png	B	0	0	0	214.63288369996	214.832837599912
47269.5	100	225	6	0	45	9	12	8	0	0	0	stim013_stimuli_original_vehicles_planes_1.png	K	0	0	0	215.032850599964	215.232850399916
47369.5	100	226	6	0	45	10	0	9	0	0	0	stim001_stimuli_original_animals_birds_1.png	L	0	0	0	215.432862799964	215.632859600009
47469.5	100	227	6	0	45	11	4	4	0	0	0	stim005_stimuli_original_animals_fish_1.png	E	0	0	0	215.832870499929	216.032869899995
47569.5	100	228	6	0	45	12	6	15	0	1	0	stim007_stimuli_original_animals_fish_3.png	Y	0	0	0	216.232884199941	216.432882900001
47669.5	100	229	6	0	45	13	9	6	0	0	0	stim010_stimuli_original_vehicles_boats_2.png	G	0	0	0	216.632896099938	216.832891599974
47769.5	100	230	6	0	45	14	14	15	0	1	0	stim015_stimuli_original_vehicles_planes_3.png	Y	0	0	0	217.032903499901	217.232904199976
47869.5	100	231	6	0	45	15	10	11	0	0	0	stim011_stimuli_original_vehicles_boats_3.png	R	0	0	0	217.432915300014	217.632914499962
47969.5	100	232	6	0	45	16	1	0	0	0	0	stim002_stimuli_original_animals_birds_2.png	A	0	0	0	217.832923699985	218.032923699939
48069.5	100	233	6	0	45	17	13	7	0	0	0	stim014_stimuli_original_vehicles_planes_2.png	J	0	0	0	218.232934999978	218.432937299949
48169.5	100	234	6	0	45	18	7	13	0	0	0	stim008_stimuli_original_animals_fish_4.png	U	0	0	0	218.632945199963	218.832945199916
48269.5	100	235	6	0	45	19	0	1	0	0	0	stim001_stimuli_original_animals_birds_1.png	B	0	0	0	219.032955899951	219.232954000006
48369.5	100	236	6	0	45	20	11	10	0	0	0	stim012_stimuli_original_vehicles_boats_4.png	Q	0	0	0	219.432967599947	219.632965900004
48469.5	100	237	6	0	45	21	15	14	1	0	0	stim016_stimuli_original_vehicles_planes_4.png	V	0	0	0	219.832977899932	220.032976599992
48569.5	100	238	6	0	45	22	6	9	0	0	0	stim007_stimuli_original_animals_fish_3.png	L	0	0	0	220.232988799922	220.432989599998
48669.5	100	239	6	0	45	23	15	6	1	0	1	stim016_stimuli_original_vehicles_planes_4.png	G	0	0	0	220.632999899914	220.832997699967
48769.5	100	240	6	0	45	24	4	4	0	0	0	stim005_stimuli_original_animals_fish_1.png	E	d	221.224797899951	1	221.033009200008	221.233012899989
48869.5	100	241	6	0	45	25	9	0	0	0	0	stim010_stimuli_original_vehicles_boats_2.png	A	0	0	0	221.433020700002	221.633019099943
48969.5	100	242	6	0	45	26	8	12	0	0	0	stim009_stimuli_original_vehicles_boats_1.png	T	0	0	0	221.833029199974	222.033032099949
49069.5	100	243	6	0	45	27	1	5	0	0	0	stim002_stimuli_original_animals_birds_2.png	F	0	0	0	222.233042699983	222.433040399919
49169.5	100	244	6	0	45	28	2	15	0	0	0	stim003_stimuli_original_animals_birds_3.png	Y	0	0	0	222.633053599973	222.833051699912
49269.5	100	245	6	0	45	29	12	1	0	1	0	stim013_stimuli_original_vehicles_planes_1.png	B	0	0	0	223.033062899951	223.233062499901
49369.5	100	246	6	0	45	30	13	2	0	0	0	stim014_stimuli_original_vehicles_planes_2.png	C	0	0	0	223.433073799941	223.633073500008
49469.5	100	247	6	0	45	31	10	1	0	1	0	stim011_stimuli_original_vehicles_boats_3.png	B	0	0	0	223.833087499952	224.033082899987
49569.5	100	248	6	0	45	32	5	8	0	0	0	stim006_stimuli_original_animals_fish_2.png	K	0	0	0	224.233094699914	224.43309549999
49669.5	100	249	6	0	45	33	15	7	0	0	0	stim016_stimuli_original_vehicles_planes_4.png	J	0	0	0	224.633107099915	224.833104599966
49769.5	100	250	6	0	45	34	14	11	0	0	0	stim015_stimuli_original_vehicles_planes_3.png	R	0	0	0	225.033117000014	225.233115599956
49869.5	100	251	6	0	45	35	3	3	0	0	0	stim004_stimuli_original_animals_birds_4.png	D	0	0	0	225.433130599908	225.633126899949
51161.25	100	252	7	1	36	0	14	1	0	0	0	stim015_stimuli_original_vehicles_planes_3.png	B	0	0	0	230.5999593999	230.799958199961
51261.25	100	253	7	1	36	1	4	9	0	0	0	stim005_stimuli_original_animals_fish_1.png	L	0	0	0	230.99997080001	231.199953099946
51361.25	100	254	7	1	36	2	9	8	0	0	0	stim010_stimuli_original_vehicles_boats_2.png	K	0	0	0	231.399998500012	231.599977799924
51461.25	100	255	7	1	36	3	5	3	0	0	0	stim006_stimuli_original_animals_fish_2.png	D	0	0	0	231.800008199993	231.999980399967
51561.25	100	256	7	1	36	4	0	11	0	0	0	stim001_stimuli_original_animals_birds_1.png	R	0	0	0	232.200004099985	232.40000569995
51661.25	100	257	7	1	36	5	1	13	0	0	0	stim002_stimuli_original_animals_birds_2.png	U	0	0	0	232.600014099968	232.800014699926
51761.25	100	258	7	1	36	6	10	2	0	0	0	stim011_stimuli_original_vehicles_boats_3.png	C	0	0	0	233.00002269994	233.200026299921
51861.25	100	259	7	1	36	7	7	5	0	0	0	stim008_stimuli_original_animals_fish_4.png	F	0	0	0	233.400033799931	233.600041899947
51961.25	100	260	7	1	36	8	0	12	1	0	0	stim001_stimuli_original_animals_birds_1.png	T	0	0	0	233.800030299928	234.000050999923
52061.25	100	261	7	1	36	9	6	15	0	0	0	stim007_stimuli_original_animals_fish_3.png	Y	0	0	0	234.200056599919	234.400057099992
52161.25	100	262	7	1	36	10	0	13	1	1	0	stim001_stimuli_original_animals_birds_1.png	U	0	0	0	234.600071299938	234.80006379995
52261.25	100	263	7	1	36	11	11	0	0	0	0	stim012_stimuli_original_vehicles_boats_4.png	A	0	0	0	235.000075999997	235.200080999988
52361.25	100	264	7	1	36	12	15	13	0	1	1	stim016_stimuli_original_vehicles_planes_4.png	U	0	0	0	235.400086399983	235.600070199929
52461.25	100	265	7	1	36	13	12	10	0	0	0	stim013_stimuli_original_vehicles_planes_1.png	Q	0	0	0	235.800097599975	236.00009919994
52561.25	100	266	7	1	36	14	13	4	0	0	0	stim014_stimuli_original_vehicles_planes_2.png	E	d	236.39189739991	1	236.200107999961	236.400111999945
52661.25	100	267	7	1	36	15	3	7	0	0	0	stim004_stimuli_original_animals_birds_4.png	J	0	0	0	236.600141200004	236.800106199924
52761.25	100	268	7	1	36	16	2	14	0	0	0	stim003_stimuli_original_animals_birds_3.png	V	0	0	0	237.00012969994	237.20010919997
52861.25	100	269	7	1	36	17	8	6	0	0	0	stim009_stimuli_original_vehicles_boats_1.png	G	0	0	0	237.400138799916	237.600138399983
52961.25	100	270	7	1	36	18	6	8	0	0	0	stim007_stimuli_original_animals_fish_3.png	K	0	0	0	237.800150699914	238.000153300003
53061.25	100	271	7	1	36	19	14	2	0	0	0	stim015_stimuli_original_vehicles_planes_3.png	C	0	0	0	238.200161299901	238.400161499972
53161.25	100	272	7	1	36	20	7	3	0	0	0	stim008_stimuli_original_animals_fish_4.png	D	0	0	0	238.60017469991	238.800171999959
53261.25	100	273	7	1	36	21	4	13	0	0	0	stim005_stimuli_original_animals_fish_1.png	U	0	0	0	239.000182799995	239.200181499938
53361.25	100	274	7	1	36	22	10	12	0	0	0	stim011_stimuli_original_vehicles_boats_3.png	T	0	0	0	239.400195299997	239.600180999958
53461.25	100	275	7	1	36	23	13	15	1	0	0	stim014_stimuli_original_vehicles_planes_2.png	Y	0	0	0	239.800207499997	240.000202599913
53561.25	100	276	7	1	36	24	0	11	0	0	0	stim001_stimuli_original_animals_birds_1.png	R	0	0	0	240.200226499932	240.400218999945
53661.25	100	277	7	1	36	25	13	0	1	1	0	stim014_stimuli_original_vehicles_planes_2.png	A	0	0	0	240.600224099937	240.800238900003
53761.25	100	278	7	1	36	26	15	6	0	0	0	stim016_stimuli_original_vehicles_planes_4.png	G	0	0	0	241.000236399937	241.2002354
53861.25	100	279	7	1	36	27	12	0	0	1	1	stim013_stimuli_original_vehicles_planes_1.png	A	0	0	0	241.400262399926	241.600246099988
53961.25	100	280	7	1	36	28	5	7	0	0	0	stim006_stimuli_original_animals_fish_2.png	J	d	241.992044899962	1	241.800258799922	242.000244399998
54061.25	100	281	7	1	36	29	2	10	0	0	0	stim003_stimuli_original_animals_birds_3.png	Q	0	0	0	242.200270999921	242.400269399979
54161.25	100	282	7	1	36	30	13	1	0	0	0	stim014_stimuli_original_vehicles_planes_2.png	B	0	0	0	242.600277799997	242.80028299999
54261.25	100	283	7	1	36	31	11	0	0	0	0	stim012_stimuli_original_vehicles_boats_4.png	A	0	0	0	243.000277000014	243.200293099973
54361.25	100	284	7	1	36	32	3	5	0	0	0	stim004_stimuli_original_animals_birds_4.png	F	0	0	0	243.400299799978	243.600300099934
54461.25	100	285	7	1	36	33	8	9	0	0	0	stim009_stimuli_original_vehicles_boats_1.png	L	0	0	0	243.800311599975	244.000339299906
54561.25	100	286	7	1	36	34	9	4	0	0	0	stim010_stimuli_original_vehicles_boats_2.png	E	0	0	0	244.200320999953	244.400309599936
54661.25	100	287	7	1	36	35	1	14	0	0	0	stim002_stimuli_original_animals_birds_2.png	V	0	0	0	244.600331399939	244.800335599924
56869.75	100	288	8	0	8	0	15	6	0	0	0	stim016_stimuli_original_vehicles_planes_4.png	G	0	0	0	253.433874899987	253.633874499938
56969.75	100	289	8	0	8	1	4	9	0	0	0	stim005_stimuli_original_animals_fish_1.png	L	0	0	0	253.833904400002	254.033884199918
57069.75	100	290	8	0	8	2	13	15	0	0	0	stim014_stimuli_original_vehicles_planes_2.png	Y	0	0	0	254.233897999977	254.433894199901
57169.75	100	291	8	0	8	3	8	12	0	0	0	stim009_stimuli_original_vehicles_boats_1.png	T	0	0	0	254.633906799951	254.833903699997
57269.75	100	292	8	0	8	4	7	7	0	0	0	stim008_stimuli_original_animals_fish_4.png	J	0	0	0	255.033916799934	255.233913599979
57369.75	100	293	8	0	8	5	9	5	1	0	0	stim010_stimuli_original_vehicles_boats_2.png	F	0	0	0	255.433925799909	255.633927399991
57469.75	100	294	8	0	8	6	0	3	0	0	0	stim001_stimuli_original_animals_birds_1.png	D	0	0	0	255.833937699907	256.033936599968
57569.75	100	295	8	0	8	7	9	10	1	0	1	stim010_stimuli_original_vehicles_boats_2.png	Q	0	0	0	256.233956799959	256.433964799973
57669.75	100	296	8	0	8	8	5	1	0	0	0	stim006_stimuli_original_animals_fish_2.png	B	d	256.825750399963	1	256.633959600003	256.833959899959
57769.75	100	297	8	0	8	9	14	11	0	0	0	stim015_stimuli_original_vehicles_planes_3.png	R	0	0	0	257.033969199983	257.233968699933
57869.75	100	298	8	0	8	10	11	2	0	0	0	stim012_stimuli_original_vehicles_boats_4.png	C	0	0	0	257.433980499976	257.633980199927
57969.75	100	299	8	0	8	11	1	14	0	0	0	stim002_stimuli_original_animals_birds_2.png	V	0	0	0	257.833992399974	258.033993199933
58069.75	100	300	8	0	8	12	6	3	0	1	0	stim007_stimuli_original_animals_fish_3.png	D	0	0	0	258.234001699951	258.434015200008
58169.75	100	301	8	0	8	13	3	4	0	0	0	stim004_stimuli_original_animals_birds_4.png	E	0	0	0	258.63401239994	258.834025699995
58269.75	100	302	8	0	8	14	12	3	0	1	0	stim013_stimuli_original_vehicles_planes_1.png	D	0	0	0	259.034036099911	259.234023600002
58369.75	100	303	8	0	8	15	9	8	0	0	0	stim010_stimuli_original_vehicles_boats_2.png	K	0	0	0	259.434037999948	259.63403289998
58469.75	100	304	8	0	8	16	2	13	0	0	0	stim003_stimuli_original_animals_birds_3.png	U	0	0	0	259.834045699914	260.034043199965
58569.75	100	305	8	0	8	17	10	0	0	0	0	stim011_stimuli_original_vehicles_boats_3.png	A	0	0	0	260.234055000008	260.434055099962
58669.75	100	306	8	0	8	18	0	10	0	0	0	stim001_stimuli_original_animals_birds_1.png	Q	0	0	0	260.634064199985	260.834066899959
58769.75	100	307	8	0	8	19	13	2	0	0	0	stim014_stimuli_original_vehicles_planes_2.png	C	0	0	0	261.034082399914	261.234075099928
58869.75	100	308	8	0	8	20	8	9	0	0	0	stim009_stimuli_original_vehicles_boats_1.png	L	0	0	0	261.434087399975	261.634093799978
58969.75	100	309	8	0	8	21	3	12	1	0	0	stim004_stimuli_original_animals_birds_4.png	T	0	0	0	261.834096799954	262.034097599913
59069.75	100	310	8	0	8	22	4	3	0	0	0	stim005_stimuli_original_animals_fish_1.png	D	0	0	0	262.234108799952	262.434107300011
59169.75	100	311	8	0	8	23	3	6	1	0	1	stim004_stimuli_original_animals_birds_4.png	G	0	0	0	262.63411949994	262.834119200008
59269.75	100	312	8	0	8	24	14	1	0	0	0	stim015_stimuli_original_vehicles_planes_3.png	B	d	263.225935399998	1	263.034131999942	263.234158099978
59369.75	100	313	8	0	8	25	2	11	0	0	0	stim003_stimuli_original_animals_birds_3.png	R	0	0	0	263.434141899925	263.63415259996
59469.75	100	314	8	0	8	26	11	14	0	0	0	stim012_stimuli_original_vehicles_boats_4.png	V	0	0	0	263.834167099907	264.034151399974
59569.75	100	315	8	0	8	27	1	5	0	0	0	stim002_stimuli_original_animals_birds_2.png	F	0	0	0	264.234162800014	264.434162199963
59669.75	100	316	8	0	8	28	10	9	0	1	0	stim011_stimuli_original_vehicles_boats_3.png	L	0	0	0	264.634171999991	264.834171699942
59769.75	100	317	8	0	8	29	3	0	0	0	0	stim004_stimuli_original_animals_birds_4.png	A	0	0	0	265.034183299984	265.234182699933
59869.75	100	318	8	0	8	30	5	9	0	1	0	stim006_stimuli_original_animals_fish_2.png	L	0	0	0	265.434195199981	265.634192899917
59969.75	100	319	8	0	8	31	7	7	0	0	0	stim008_stimuli_original_animals_fish_4.png	J	d	265.826769399922	0	265.834230999928	266.034203999909
60069.75	100	320	8	0	8	32	12	8	0	0	0	stim013_stimuli_original_vehicles_planes_1.png	K	0	0	0	266.234216599958	266.434243399999
60169.75	100	321	8	0	8	33	15	13	0	0	0	stim016_stimuli_original_vehicles_planes_4.png	U	0	0	0	266.634225799935	266.83422379999
60269.75	100	322	8	0	8	34	9	4	0	0	0	stim010_stimuli_original_vehicles_boats_2.png	E	0	0	0	267.034236799926	267.234235399985
60369.75	100	323	8	0	8	35	6	15	0	0	0	stim007_stimuli_original_animals_fish_3.png	Y	0	0	0	267.434247299912	267.634246499976
62065.75	100	324	9	1	15	0	10	13	0	0	0	stim011_stimuli_original_vehicles_boats_3.png	U	0	0	0	274.217762899934	274.417763400008
62165.75	100	325	9	1	15	1	1	9	0	0	0	stim002_stimuli_original_animals_birds_2.png	L	0	0	0	274.617779399967	274.817791800015
62265.75	100	326	9	1	15	2	11	1	0	0	0	stim012_stimuli_original_vehicles_boats_4.png	B	0	0	0	275.017786099925	275.217785299988
62365.75	100	327	9	1	15	3	12	0	0	0	0	stim013_stimuli_original_vehicles_planes_1.png	A	0	0	0	275.417798799928	275.617799900007
62465.75	100	328	9	1	15	4	5	5	1	0	0	stim006_stimuli_original_animals_fish_2.png	F	0	0	0	275.817808099906	276.017806599964
62565.75	100	329	9	1	15	5	8	3	0	0	0	stim009_stimuli_original_vehicles_boats_1.png	D	0	0	0	276.217813999974	276.417818899965
62665.75	100	330	9	1	15	6	5	8	1	0	0	stim006_stimuli_original_animals_fish_2.png	K	0	0	0	276.617829299998	276.817827699939
62765.75	100	331	9	1	15	7	6	15	0	0	0	stim007_stimuli_original_animals_fish_3.png	Y	0	0	0	277.017861699918	277.21783619991
62865.75	100	332	9	1	15	8	14	2	0	0	0	stim015_stimuli_original_vehicles_planes_3.png	C	0	0	0	277.417850399972	277.617854099954
62965.75	100	333	9	1	15	9	3	4	0	0	0	stim004_stimuli_original_animals_birds_4.png	E	0	0	0	277.817860299954	278.017859699903
63065.75	100	334	9	1	15	10	7	12	0	0	0	stim008_stimuli_original_animals_fish_4.png	T	0	0	0	278.217870099936	278.417870400008
63165.75	100	335	9	1	15	11	13	15	0	1	0	stim014_stimuli_original_vehicles_planes_2.png	Y	0	0	0	278.617885099957	278.81788639992
63265.75	100	336	9	1	15	12	4	14	0	0	0	stim005_stimuli_original_animals_fish_1.png	V	0	0	0	279.017893199925	279.217889099964
63365.75	100	337	9	1	15	13	5	15	0	1	1	stim006_stimuli_original_animals_fish_2.png	Y	d	279.609708099975	1	279.417903999914	279.617933299975
63465.75	100	338	9	1	15	14	2	11	0	0	0	stim003_stimuli_original_animals_birds_3.png	R	0	0	0	279.817914999905	280.017914999975
63565.75	100	339	9	1	15	15	9	10	0	0	0	stim010_stimuli_original_vehicles_boats_2.png	Q	0	0	0	280.217955	280.417925999966
63665.75	100	340	9	1	15	16	15	6	0	0	0	stim016_stimuli_original_vehicles_planes_4.png	G	0	0	0	280.617938899901	280.817935399944
63765.75	100	341	9	1	15	17	0	7	0	0	0	stim001_stimuli_original_animals_birds_1.png	J	0	0	0	281.017946599983	281.217943099909
63865.75	100	342	9	1	15	18	7	0	0	0	0	stim008_stimuli_original_animals_fish_4.png	A	0	0	0	281.417957499973	281.617956199916
63965.75	100	343	9	1	15	19	6	15	0	0	0	stim007_stimuli_original_animals_fish_3.png	Y	0	0	0	281.817967099953	282.01796759991
64065.75	100	344	9	1	15	20	10	9	0	0	0	stim011_stimuli_original_vehicles_boats_3.png	L	d	282.409792899969	0	282.218002700014	282.417977400008
64165.75	100	345	9	1	15	21	11	2	0	0	0	stim012_stimuli_original_vehicles_boats_4.png	C	0	0	0	282.617992699961	282.81799739995
64265.75	100	346	9	1	15	22	15	5	1	0	0	stim016_stimuli_original_vehicles_planes_4.png	F	0	0	0	283.017998999916	283.217997299973
64365.75	100	347	9	1	15	23	14	4	0	0	0	stim015_stimuli_original_vehicles_planes_3.png	E	0	0	0	283.418010999914	283.618010199978
64465.75	100	348	9	1	15	24	15	13	1	0	0	stim016_stimuli_original_vehicles_planes_4.png	U	0	0	0	283.818023699918	284.018020999967
64565.75	100	349	9	1	15	25	12	7	0	0	0	stim013_stimuli_original_vehicles_planes_1.png	J	0	0	0	284.218028899981	284.418050899985
64665.75	100	350	9	1	15	26	4	3	0	0	0	stim005_stimuli_original_animals_fish_1.png	D	0	0	0	284.618043399998	284.818054699921
64765.75	100	351	9	1	15	27	2	14	0	0	0	stim003_stimuli_original_animals_birds_3.png	V	0	0	0	285.018053499982	285.218050699914
64865.75	100	352	9	1	15	28	15	6	0	0	0	stim016_stimuli_original_vehicles_planes_4.png	G	0	0	0	285.418072399916	285.618066199939
64965.75	100	353	9	1	15	29	8	5	0	1	0	stim009_stimuli_original_vehicles_boats_1.png	F	0	0	0	285.818075699965	286.018078499939
65065.75	100	354	9	1	15	30	3	8	0	0	0	stim004_stimuli_original_animals_birds_4.png	K	0	0	0	286.21808469994	286.418104999932
65165.75	100	355	9	1	15	31	5	5	0	1	1	stim006_stimuli_original_animals_fish_2.png	F	0	0	0	286.618113199947	286.818108699983
65265.75	100	356	9	1	15	32	0	12	0	0	0	stim001_stimuli_original_animals_birds_1.png	T	0	0	0	287.01814890001	287.218116799952
65365.75	100	357	9	1	15	33	1	11	0	0	0	stim002_stimuli_original_animals_birds_2.png	R	d	287.425475899945	1	287.418130500009	287.61814279994
65465.75	100	358	9	1	15	34	9	1	0	0	0	stim010_stimuli_original_vehicles_boats_2.png	B	0	0	0	287.818139999988	288.018147299998
65565.75	100	359	9	1	15	35	13	10	0	0	0	stim014_stimuli_original_vehicles_planes_2.png	Q	0	0	0	288.218148399959	288.418154699961
66678.25	100	360	10	0	11	0	9	14	0	0	0	stim010_stimuli_original_vehicles_boats_2.png	V	0	0	0	292.668273299932	292.868268499966
66778.25	100	361	10	0	11	1	11	10	0	0	0	stim012_stimuli_original_vehicles_boats_4.png	Q	0	0	0	293.068281799904	293.268279699958
66878.25	100	362	10	0	11	2	3	7	0	0	0	stim004_stimuli_original_animals_birds_4.png	J	0	0	0	293.468292000005	293.668290199945
66978.25	100	363	10	0	11	3	13	0	0	0	0	stim014_stimuli_original_vehicles_planes_2.png	A	0	0	0	293.868300399976	294.068303199951
67078.25	100	364	10	0	11	4	7	13	0	0	0	stim008_stimuli_original_animals_fish_4.png	U	0	0	0	294.268312599976	294.468323500012
67178.25	100	365	10	0	11	5	2	3	0	0	0	stim003_stimuli_original_animals_birds_3.png	D	0	0	0	294.668351199944	294.868321499904
67278.25	100	366	10	0	11	6	14	1	0	0	0	stim015_stimuli_original_vehicles_planes_3.png	B	0	0	0	295.068335799966	295.268336999929
67378.25	100	367	10	0	11	7	8	6	1	0	0	stim009_stimuli_original_vehicles_boats_1.png	G	0	0	0	295.468343199929	295.668342799996
67478.25	100	368	10	0	11	8	5	9	0	1	0	stim006_stimuli_original_animals_fish_2.png	L	0	0	0	295.868356199935	296.068357200013
67578.25	100	369	10	0	11	9	8	8	1	0	1	stim009_stimuli_original_vehicles_boats_1.png	K	0	0	0	296.268368899939	296.468365899986
67678.25	100	370	10	0	11	10	4	9	0	1	0	stim005_stimuli_original_animals_fish_1.png	L	0	0	0	296.668399799964	296.868381000008
67778.25	100	371	10	0	11	11	1	11	0	0	0	stim002_stimuli_original_animals_birds_2.png	R	0	0	0	297.068402300007	297.268402199959
67878.25	100	372	10	0	11	12	12	15	0	0	0	stim013_stimuli_original_vehicles_planes_1.png	Y	0	0	0	297.468399900012	297.668408899917
67978.25	100	373	10	0	11	13	0	9	0	0	0	stim001_stimuli_original_animals_birds_1.png	L	0	0	0	297.868410099996	298.068406699924
68078.25	100	374	10	0	11	14	8	2	0	0	0	stim009_stimuli_original_vehicles_boats_1.png	C	0	0	0	298.268418399966	298.468419199926
68178.25	100	375	10	0	11	15	15	5	0	0	0	stim016_stimuli_original_vehicles_planes_4.png	F	0	0	0	298.668430099962	298.868430199916
68278.25	100	376	10	0	11	16	6	12	0	0	0	stim007_stimuli_original_animals_fish_3.png	T	0	0	0	299.068441799958	299.268468499999
68378.25	100	377	10	0	11	17	10	4	0	0	0	stim011_stimuli_original_vehicles_boats_3.png	E	0	0	0	299.46845159994	299.6684503
68478.25	100	378	10	0	11	18	4	10	0	0	0	stim005_stimuli_original_animals_fish_1.png	Q	0	0	0	299.868481599959	300.068460099981
68578.25	100	379	10	0	11	19	12	6	0	0	0	stim013_stimuli_original_vehicles_planes_1.png	G	0	0	0	300.268465099973	300.46846299991
68678.25	100	380	10	0	11	20	5	15	0	0	0	stim006_stimuli_original_animals_fish_2.png	Y	0	0	0	300.668494199985	300.868482999969
68778.25	100	381	10	0	11	21	2	8	0	0	0	stim003_stimuli_original_animals_birds_3.png	K	d	301.061086999951	0	301.068493400002	301.268494499964
68878.25	100	382	10	0	11	22	9	0	0	0	0	stim010_stimuli_original_vehicles_boats_2.png	A	0	0	0	301.468504399993	301.668506499962
68978.25	100	383	10	0	11	23	15	12	0	0	0	stim016_stimuli_original_vehicles_planes_4.png	T	0	0	0	301.868530999986	302.068515399937
69078.25	100	384	10	0	11	24	11	1	0	0	0	stim012_stimuli_original_vehicles_boats_4.png	B	0	0	0	302.268527599983	302.468525699922
69178.25	100	385	10	0	11	25	9	4	1	0	0	stim010_stimuli_original_vehicles_boats_2.png	E	0	0	0	302.668542400002	302.868536299909
69278.25	100	386	10	0	11	26	8	8	0	1	0	stim009_stimuli_original_vehicles_boats_1.png	K	0	0	0	303.068546199938	303.268549299915
69378.25	100	387	10	0	11	27	9	5	1	0	1	stim010_stimuli_original_vehicles_boats_2.png	F	d	303.461131799966	1	303.468558099936	303.668557900004
69478.25	100	388	10	0	11	28	6	8	0	1	0	stim007_stimuli_original_animals_fish_3.png	K	0	0	0	303.868571199942	304.068585100002
69578.25	100	389	10	0	11	29	1	14	0	0	0	stim002_stimuli_original_animals_birds_2.png	V	0	0	0	304.268578899908	304.46859319997
69678.25	100	390	10	0	11	30	3	2	0	0	0	stim004_stimuli_original_animals_birds_4.png	C	0	0	0	304.668590299902	304.868589299964
69778.25	100	391	10	0	11	31	13	7	0	0	0	stim014_stimuli_original_vehicles_planes_2.png	J	0	0	0	305.068602599902	305.268600599957
69878.25	100	392	10	0	11	32	0	13	0	0	0	stim001_stimuli_original_animals_birds_1.png	U	0	0	0	305.468615299906	305.668610299937
69978.25	100	393	10	0	11	33	7	3	0	0	0	stim008_stimuli_original_animals_fish_4.png	D	0	0	0	305.868623199989	306.068621799932
70078.25	100	394	10	0	11	34	10	11	0	0	0	stim011_stimuli_original_vehicles_boats_3.png	R	0	0	0	306.268633699976	306.468632699922
70178.25	100	395	10	0	11	35	14	9	0	0	0	stim015_stimuli_original_vehicles_planes_3.png	L	0	0	0	306.668671099935	306.868641400011
71982.5	100	396	11	1	46	0	13	6	0	0	0	stim014_stimuli_original_vehicles_planes_2.png	G	0	0	0	313.885494199931	314.085491599981
72082.5	100	397	11	1	46	1	6	1	0	0	0	stim007_stimuli_original_animals_fish_3.png	B	0	0	0	314.285502799903	314.485504599987
72182.5	100	398	11	1	46	2	1	14	0	0	0	stim002_stimuli_original_animals_birds_2.png	V	0	0	0	314.685514100012	314.885512799956
72282.5	100	399	11	1	46	3	3	9	0	0	0	stim004_stimuli_original_animals_birds_4.png	L	0	0	0	315.0855247	315.285524999956
72382.5	100	400	11	1	46	4	4	3	0	0	0	stim005_stimuli_original_animals_fish_1.png	D	0	0	0	315.485536499997	315.68553519994
72482.5	100	401	11	1	46	5	8	6	0	1	0	stim009_stimuli_original_vehicles_boats_1.png	G	0	0	0	315.885546299978	316.085548599949
72582.5	100	402	11	1	46	6	0	4	0	0	0	stim001_stimuli_original_animals_birds_1.png	E	0	0	0	316.285556499963	316.485556699918
72682.5	100	403	11	1	46	7	13	6	1	1	1	stim014_stimuli_original_vehicles_planes_2.png	G	0	0	0	316.685567899956	316.885566899902
72782.5	100	404	11	1	46	8	11	10	0	0	0	stim012_stimuli_original_vehicles_boats_4.png	Q	0	0	0	317.085579199949	317.285577900009
72882.5	100	405	11	1	46	9	13	12	1	0	0	stim014_stimuli_original_vehicles_planes_2.png	T	d	317.478117499966	1	317.485616599908	317.685588499997
72982.5	100	406	11	1	46	10	7	2	0	0	0	stim008_stimuli_original_animals_fish_4.png	C	0	0	0	317.885600299924	318.085598199978
73082.5	100	407	11	1	46	11	10	7	0	0	0	stim011_stimuli_original_vehicles_boats_3.png	J	0	0	0	318.285610599909	318.485609699972
73182.5	100	408	11	1	46	12	12	13	0	0	0	stim013_stimuli_original_vehicles_planes_1.png	U	0	0	0	318.685620900011	318.885619799956
73282.5	100	409	11	1	46	13	15	5	0	0	0	stim016_stimuli_original_vehicles_planes_4.png	F	0	0	0	319.085631399998	319.285631199949
73382.5	100	410	11	1	46	14	5	15	0	0	0	stim006_stimuli_original_animals_fish_2.png	Y	0	0	0	319.485643799999	319.685640399926
73482.5	100	411	11	1	46	15	9	11	0	0	0	stim010_stimuli_original_vehicles_boats_2.png	R	0	0	0	319.885651899967	320.085652199923
73582.5	100	412	11	1	46	16	14	0	0	0	0	stim015_stimuli_original_vehicles_planes_3.png	A	0	0	0	320.285663799965	320.485662499908
73682.5	100	413	11	1	46	17	2	8	0	0	0	stim003_stimuli_original_animals_birds_3.png	K	0	0	0	320.685676499968	320.885673699901
73782.5	100	414	11	1	46	18	8	2	0	0	0	stim009_stimuli_original_vehicles_boats_1.png	C	0	0	0	321.085685499944	321.285687099909
73882.5	100	415	11	1	46	19	0	14	0	0	0	stim001_stimuli_original_animals_birds_1.png	V	0	0	0	321.485694799921	321.68569459999
73982.5	100	416	11	1	46	20	11	9	0	0	0	stim012_stimuli_original_vehicles_boats_4.png	L	0	0	0	321.885707499925	322.08570559998
74082.5	100	417	11	1	46	21	15	5	0	0	0	stim016_stimuli_original_vehicles_planes_4.png	F	0	0	0	322.285716100014	322.485715999966
74182.5	100	418	11	1	46	22	5	15	0	0	0	stim006_stimuli_original_animals_fish_2.png	Y	0	0	0	322.685726399999	322.885729799978
74282.5	100	419	11	1	46	23	13	12	0	0	0	stim014_stimuli_original_vehicles_planes_2.png	T	0	0	0	323.085738099995	323.28573829995
74382.5	100	420	11	1	46	24	7	10	0	0	0	stim008_stimuli_original_animals_fish_4.png	Q	0	0	0	323.485748899984	323.685748599935
74482.5	100	421	11	1	46	25	2	7	0	0	0	stim003_stimuli_original_animals_birds_3.png	J	0	0	0	323.885759399971	324.085759599926
74582.5	100	422	11	1	46	26	12	13	0	1	0	stim013_stimuli_original_vehicles_planes_1.png	U	0	0	0	324.285770499962	324.485772799933
74682.5	100	423	11	1	46	27	10	11	0	0	0	stim011_stimuli_original_vehicles_boats_3.png	R	0	0	0	324.685780099942	324.885785999941
74782.5	100	424	11	1	46	28	6	13	1	1	1	stim007_stimuli_original_animals_fish_3.png	U	0	0	0	325.085792299942	325.285795799922
74882.5	100	425	11	1	46	29	4	0	0	0	0	stim005_stimuli_original_animals_fish_1.png	A	0	0	0	325.485802099924	325.6858029
74982.5	100	426	11	1	46	30	6	8	1	0	0	stim007_stimuli_original_animals_fish_3.png	K	0	0	0	325.885811899905	326.085812199977
75082.5	100	427	11	1	46	31	3	4	0	0	0	stim004_stimuli_original_animals_birds_4.png	E	0	0	0	326.285826599924	326.485823799972
75182.5	100	428	11	1	46	32	9	3	0	0	0	stim010_stimuli_original_vehicles_boats_2.png	D	0	0	0	326.685835200013	326.885858499911
75282.5	100	429	11	1	46	33	14	1	0	0	0	stim015_stimuli_original_vehicles_planes_3.png	B	0	0	0	327.085848599905	327.285846199957
75382.5	100	430	11	1	46	34	1	6	0	0	0	stim002_stimuli_original_animals_birds_2.png	G	0	0	0	327.48585539998	327.68585489993
75482.5	100	431	11	1	46	35	6	13	0	0	0	stim007_stimuli_original_animals_fish_3.png	U	0	0	0	327.885867099976	328.085866299924
76161.75	100	432	12	0	29	0	5	8	0	0	0	stim006_stimuli_original_animals_fish_2.png	K	0	0	0	330.602613899973	330.802606499987
76261.75	100	433	12	0	29	1	13	3	0	0	0	stim014_stimuli_original_vehicles_planes_2.png	D	0	0	0	331.002616999904	331.202616999974
76361.75	100	434	12	0	29	2	1	9	0	0	0	stim002_stimuli_original_animals_birds_2.png	L	0	0	0	331.402628200012	331.602627099957
76461.75	100	435	12	0	29	3	15	4	0	0	0	stim016_stimuli_original_vehicles_planes_4.png	E	0	0	0	331.802636999986	332.002662100014
76561.75	100	436	12	0	29	4	12	14	0	0	0	stim013_stimuli_original_vehicles_planes_1.png	V	0	0	0	332.202649899991	332.402675999911
76661.75	100	437	12	0	29	5	0	10	0	0	0	stim001_stimuli_original_animals_birds_1.png	Q	0	0	0	332.602658099961	332.802658999921
76761.75	100	438	12	0	29	6	2	6	0	0	0	stim003_stimuli_original_animals_birds_3.png	G	0	0	0	333.002685799962	333.202668599901
76861.75	100	439	12	0	29	7	7	12	1	1	0	stim008_stimuli_original_animals_fish_4.png	T	0	0	0	333.402680199943	333.602680300013
76961.75	100	440	12	0	29	8	8	11	0	0	0	stim009_stimuli_original_vehicles_boats_1.png	R	0	0	0	333.802691199933	334.002691300004
77061.75	100	441	12	0	29	9	7	12	1	1	1	stim008_stimuli_original_animals_fish_4.png	T	0	0	0	334.202702799928	334.40270169999
77161.75	100	442	12	0	29	10	6	7	0	0	0	stim007_stimuli_original_animals_fish_3.png	J	d	334.794506100006	1	334.602714799927	334.802714099991
77261.75	100	443	12	0	29	11	9	15	0	0	0	stim010_stimuli_original_vehicles_boats_2.png	Y	0	0	0	335.002748199971	335.20272489998
77361.75	100	444	12	0	29	12	14	0	0	0	0	stim015_stimuli_original_vehicles_planes_3.png	A	0	0	0	335.402734100004	335.602739099995
77461.75	100	445	12	0	29	13	7	1	0	0	0	stim008_stimuli_original_animals_fish_4.png	B	0	0	0	335.802743599983	336.002744399942
77561.75	100	446	12	0	29	14	11	13	0	0	0	stim012_stimuli_original_vehicles_boats_4.png	U	0	0	0	336.202756299987	336.402757799951
77661.75	100	447	12	0	29	15	4	5	0	0	0	stim005_stimuli_original_animals_fish_1.png	F	0	0	0	336.602768399986	336.80276589992
77761.75	100	448	12	0	29	16	10	12	0	0	0	stim011_stimuli_original_vehicles_boats_3.png	T	0	0	0	337.002777799964	337.202779699932
77861.75	100	449	12	0	29	17	3	2	0	0	0	stim004_stimuli_original_animals_birds_4.png	C	0	0	0	337.402788999956	337.602800099994
77961.75	100	450	12	0	29	18	2	3	0	0	0	stim003_stimuli_original_animals_birds_3.png	D	0	0	0	337.802799899946	338.002799700014
78061.75	100	451	12	0	29	19	12	10	0	0	0	stim013_stimuli_original_vehicles_planes_1.png	Q	0	0	0	338.202817499987	338.402807899984
78161.75	100	452	12	0	29	20	5	4	0	0	0	stim006_stimuli_original_animals_fish_2.png	E	0	0	0	338.602820799919	338.802819899982
78261.75	100	453	12	0	29	21	13	11	0	0	0	stim014_stimuli_original_vehicles_planes_2.png	R	0	0	0	339.002830400015	339.202834399999
78361.75	100	454	12	0	29	22	1	7	0	0	0	stim002_stimuli_original_animals_birds_2.png	J	d	339.59463149996	0	339.402842200012	339.602844799985
78461.75	100	455	12	0	29	23	0	14	0	0	0	stim001_stimuli_original_animals_birds_1.png	V	0	0	0	339.802893299959	340.002851799945
78561.75	100	456	12	0	29	24	15	9	0	0	0	stim016_stimuli_original_vehicles_planes_4.png	L	0	0	0	340.202862099977	340.402862299932
78661.75	100	457	12	0	29	25	7	6	0	0	0	stim008_stimuli_original_animals_fish_4.png	G	0	0	0	340.602873299969	340.802875899943
78761.75	100	458	12	0	29	26	12	7	1	1	0	stim013_stimuli_original_vehicles_planes_1.png	J	0	0	0	341.002883899957	341.202884599916
78861.75	100	459	12	0	29	27	11	8	0	0	0	stim012_stimuli_original_vehicles_boats_4.png	K	0	0	0	341.402896099957	341.602893300005
78961.75	100	460	12	0	29	28	12	7	1	1	1	stim013_stimuli_original_vehicles_planes_1.png	J	0	0	0	341.80290879996	342.002906000009
79062	100	461	12	0	29	29	6	2	0	0	0	stim007_stimuli_original_animals_fish_3.png	C	0	0	0	342.202916599927	342.402945299982
79162	100	462	12	0	29	30	10	0	0	0	0	stim011_stimuli_original_vehicles_boats_3.png	A	d	342.59548499994	1	342.602928099921	342.802928699995
79262	100	463	12	0	29	31	14	12	0	0	0	stim015_stimuli_original_vehicles_planes_3.png	T	0	0	0	343.002952600014	343.20293629996
79362	100	464	12	0	29	32	4	15	0	0	0	stim005_stimuli_original_animals_fish_1.png	Y	0	0	0	343.402949200012	343.602948199958
79462	100	465	12	0	29	33	9	1	0	0	0	stim010_stimuli_original_vehicles_boats_2.png	B	0	0	0	343.802958399989	344.002960199956
79562	100	466	12	0	29	34	3	13	0	0	0	stim004_stimuli_original_animals_birds_4.png	U	0	0	0	344.202971799998	344.402968799928
79662	100	467	12	0	29	35	8	5	0	0	0	stim009_stimuli_original_vehicles_boats_1.png	F	0	0	0	344.602983599994	344.80298129993
80428.5	100	468	13	1	33	0	3	5	0	0	0	stim004_stimuli_original_animals_birds_4.png	F	0	0	0	347.669757999945	347.86974939995
80528.5	100	469	13	1	33	1	11	3	0	0	0	stim012_stimuli_original_vehicles_boats_4.png	D	0	0	0	348.069768099929	348.269760499941
80628.5	100	470	13	1	33	2	4	1	0	0	0	stim005_stimuli_original_animals_fish_1.png	B	0	0	0	348.469778799918	348.669778199983
80728.5	100	471	13	1	33	3	14	9	0	0	0	stim015_stimuli_original_vehicles_planes_3.png	L	0	0	0	348.869789299904	349.069787099957
80828.5	100	472	13	1	33	4	6	8	1	0	0	stim007_stimuli_original_animals_fish_3.png	K	0	0	0	349.269794099964	349.469801099971
80928.5	100	473	13	1	33	5	0	6	0	1	0	stim001_stimuli_original_animals_birds_1.png	G	0	0	0	349.669808099978	349.86980789993
81028.5	100	474	13	1	33	6	6	0	1	0	0	stim007_stimuli_original_animals_fish_3.png	A	0	0	0	350.069840700016	350.269803499919
81128.5	100	475	13	1	33	7	15	6	0	1	1	stim016_stimuli_original_vehicles_planes_4.png	G	0	0	0	350.469831999973	350.669815999921
81228.5	100	476	13	1	33	8	13	14	0	0	0	stim014_stimuli_original_vehicles_planes_2.png	V	0	0	0	350.869838999934	351.069846199942
81328.5	100	477	13	1	33	9	10	13	0	0	0	stim011_stimuli_original_vehicles_boats_3.png	U	d	351.262421599939	1	351.26985469996	351.469852300012
81428.5	100	478	13	1	33	10	1	2	0	0	0	stim002_stimuli_original_animals_birds_2.png	C	0	0	0	351.669861899922	351.869862899999
81528.5	100	479	13	1	33	11	5	12	0	0	0	stim006_stimuli_original_animals_fish_2.png	T	0	0	0	352.069871599902	352.269847399904
81628.5	100	480	13	1	33	12	6	4	0	0	0	stim007_stimuli_original_animals_fish_3.png	E	0	0	0	352.469857099932	352.669857500005
81728.5	100	481	13	1	33	13	7	11	0	0	0	stim008_stimuli_original_animals_fish_4.png	R	0	0	0	352.869870099938	353.069867599988
81828.5	100	482	13	1	33	14	9	6	0	0	0	stim010_stimuli_original_vehicles_boats_2.png	G	0	0	0	353.269880799926	353.469880499993
81928.5	100	483	13	1	33	15	8	7	0	0	0	stim009_stimuli_original_vehicles_boats_1.png	J	0	0	0	353.66989229992	353.869890299975
82028.5	100	484	13	1	33	16	2	10	0	0	0	stim003_stimuli_original_animals_birds_3.png	Q	0	0	0	354.069899299997	354.269905299996
82128.5	100	485	13	1	33	17	12	15	0	0	0	stim013_stimuli_original_vehicles_planes_1.png	Y	0	0	0	354.469916999922	354.669911299949
82228.5	100	486	13	1	33	18	15	12	0	0	0	stim016_stimuli_original_vehicles_planes_4.png	T	0	0	0	354.869922199985	355.069923499948
82328.75	100	487	13	1	33	19	10	2	0	0	0	stim011_stimuli_original_vehicles_boats_3.png	C	0	0	0	355.269932999974	355.469932699925
82428.75	100	488	13	1	33	20	7	8	0	0	0	stim008_stimuli_original_animals_fish_4.png	K	0	0	0	355.669942699955	355.869944599923
82528.75	100	489	13	1	33	21	6	9	0	0	0	stim007_stimuli_original_animals_fish_3.png	L	0	0	0	356.069954599952	356.269953600015
82628.75	100	490	13	1	33	22	11	7	0	0	0	stim012_stimuli_original_vehicles_boats_4.png	J	0	0	0	356.469969699974	356.6699639
82728.75	100	491	13	1	33	23	4	6	0	0	0	stim005_stimuli_original_animals_fish_1.png	G	0	0	0	356.869976999937	357.069974699989
82828.75	100	492	13	1	33	24	12	5	0	0	0	stim013_stimuli_original_vehicles_planes_1.png	F	0	0	0	357.269987199921	357.469985299977
82928.75	100	493	13	1	33	25	2	1	0	0	0	stim003_stimuli_original_animals_birds_3.png	B	0	0	0	357.669996799901	357.869994199951
83028.75	100	494	13	1	33	26	13	10	0	0	0	stim014_stimuli_original_vehicles_planes_2.png	Q	0	0	0	358.07000800001	358.270007099956
83128.75	100	495	13	1	33	27	14	13	0	0	0	stim015_stimuli_original_vehicles_planes_3.png	U	0	0	0	358.470021199901	358.670017299941
83228.75	100	496	13	1	33	28	6	15	1	0	0	stim007_stimuli_original_animals_fish_3.png	Y	0	0	0	358.870037899935	359.070027899928
83328.75	100	497	13	1	33	29	0	6	0	1	0	stim001_stimuli_original_animals_birds_1.png	G	0	0	0	359.270045200014	359.470049299998
83428.75	100	498	13	1	33	30	6	0	1	0	0	stim007_stimuli_original_animals_fish_3.png	A	0	0	0	359.670049999957	359.870048999903
83528.75	100	499	13	1	33	31	8	6	0	1	1	stim009_stimuli_original_vehicles_boats_1.png	G	0	0	0	360.070060899947	360.270076599903
83628.75	100	500	13	1	33	32	9	14	0	0	0	stim010_stimuli_original_vehicles_boats_2.png	V	d	360.661898599938	1	360.470087599941	360.670093899942
83728.75	100	501	13	1	33	33	1	4	0	0	0	stim002_stimuli_original_animals_birds_2.png	E	0	0	0	360.870095499908	361.070099100005
83828.75	100	502	13	1	33	34	3	11	0	0	0	stim004_stimuli_original_animals_birds_4.png	R	0	0	0	361.270108999917	361.470105999964
83928.75	100	503	13	1	33	35	5	3	0	0	0	stim006_stimuli_original_animals_fish_2.png	D	0	0	0	361.670119499904	361.87011369993
84799.5	100	504	14	0	18	0	15	7	0	0	0	stim016_stimuli_original_vehicles_planes_4.png	J	0	0	0	365.153543299995	365.35354479996
84899.5	100	505	14	0	18	1	3	10	0	0	0	stim004_stimuli_original_animals_birds_4.png	Q	0	0	0	365.553551399964	365.753568699933
84999.5	100	506	14	0	18	2	2	11	0	0	0	stim003_stimuli_original_animals_birds_3.png	R	0	0	0	365.953564199968	366.153564299922
85099.5	100	507	14	0	18	3	13	1	0	0	0	stim014_stimuli_original_vehicles_planes_2.png	B	0	0	0	366.353584499913	366.553579399944
85199.5	100	508	14	0	18	4	11	3	0	0	0	stim012_stimuli_original_vehicles_boats_4.png	D	0	0	0	366.753585599945	366.953584700008
85299.5	100	509	14	0	18	5	12	0	0	0	0	stim013_stimuli_original_vehicles_planes_1.png	A	0	0	0	367.153594699921	367.353594499989
85399.5	100	510	14	0	18	6	7	12	0	0	0	stim008_stimuli_original_animals_fish_4.png	T	0	0	0	367.553605099907	367.753604399972
85499.5	100	511	14	0	18	7	10	9	0	0	0	stim011_stimuli_original_vehicles_boats_3.png	L	0	0	0	367.953624399961	368.153595599928
85599.5	100	512	14	0	18	8	5	4	0	0	0	stim006_stimuli_original_animals_fish_2.png	E	0	0	0	368.353646199917	368.553652099916
85699.5	100	513	14	0	18	9	14	0	0	1	0	stim015_stimuli_original_vehicles_planes_3.png	A	0	0	0	368.753660599934	368.953659399995
85799.5	100	514	14	0	18	10	10	6	1	0	0	stim011_stimuli_original_vehicles_boats_3.png	G	0	0	0	369.153669799911	369.353669499978
85899.5	100	515	14	0	18	11	1	0	0	1	0	stim002_stimuli_original_animals_birds_2.png	A	0	0	0	369.553679900011	369.753676999942
85999.5	100	516	14	0	18	12	10	15	1	0	1	stim011_stimuli_original_vehicles_boats_3.png	Y	0	0	0	369.953689599992	370.153689899947
86099.5	100	517	14	0	18	13	8	8	0	0	0	stim009_stimuli_original_vehicles_boats_1.png	K	0	0	0	370.353703100001	370.553705699975
86199.5	100	518	14	0	18	14	0	2	0	0	0	stim001_stimuli_original_animals_birds_1.png	C	0	0	0	370.753710499965	370.953714299947
86299.5	100	519	14	0	18	15	6	14	0	0	0	stim007_stimuli_original_animals_fish_3.png	V	0	0	0	371.153720499948	371.353719600011
86399.5	100	520	14	0	18	16	4	13	0	0	0	stim005_stimuli_original_animals_fish_1.png	U	0	0	0	371.553736599977	371.753730500001
86499.5	100	521	14	0	18	17	9	5	0	0	0	stim010_stimuli_original_vehicles_boats_2.png	F	0	0	0	371.953728299937	372.153766199946
86599.5	100	522	14	0	18	18	5	9	0	0	0	stim006_stimuli_original_animals_fish_2.png	L	0	0	0	372.353758199955	372.553756100009
86699.5	100	523	14	0	18	19	13	4	0	0	0	stim014_stimuli_original_vehicles_planes_2.png	E	0	0	0	372.753765299916	372.95376319997
86799.5	100	524	14	0	18	20	14	6	0	0	0	stim015_stimuli_original_vehicles_planes_3.png	G	0	0	0	373.153775799903	373.353759199963
86899.5	100	525	14	0	18	21	2	0	0	0	0	stim003_stimuli_original_animals_birds_3.png	A	0	0	0	373.553788399906	373.753787399968
86999.5	100	526	14	0	18	22	8	8	0	0	0	stim009_stimuli_original_vehicles_boats_1.png	K	0	0	0	373.953796899994	374.153796299943
87099.5	100	527	14	0	18	23	15	10	0	1	0	stim016_stimuli_original_vehicles_planes_4.png	Q	0	0	0	374.353807999985	374.553809199948
87199.5	100	528	14	0	18	24	0	1	1	0	0	stim001_stimuli_original_animals_birds_1.png	B	0	0	0	374.75381949998	374.953814500012
87299.5	100	529	14	0	18	25	6	10	0	1	0	stim007_stimuli_original_animals_fish_3.png	Q	0	0	0	375.153824399924	375.353825800004
87399.5	100	530	14	0	18	26	0	14	1	0	1	stim001_stimuli_original_animals_birds_1.png	V	d	375.546347899945	1	375.553819199908	375.753833299968
87499.5	100	531	14	0	18	27	4	5	0	0	0	stim005_stimuli_original_animals_fish_1.png	F	0	0	0	375.953846599907	376.153843199951
87599.5	100	532	14	0	18	28	9	10	0	0	0	stim010_stimuli_original_vehicles_boats_2.png	Q	0	0	0	376.353856200003	376.553855599952
87699.5	100	533	14	0	18	29	12	7	0	0	0	stim013_stimuli_original_vehicles_planes_1.png	J	0	0	0	376.7538701999	376.953869099962
87799.5	100	534	14	0	18	30	0	12	0	0	0	stim001_stimuli_original_animals_birds_1.png	T	0	0	0	377.153879899997	377.353879999951
87899.5	100	535	14	0	18	31	3	11	0	0	0	stim004_stimuli_original_animals_birds_4.png	R	0	0	0	377.553886699956	377.753887899918
87999.5	100	536	14	0	18	32	1	13	0	0	0	stim002_stimuli_original_animals_birds_2.png	U	0	0	0	377.953898999956	378.153883399907
88099.5	100	537	14	0	18	33	11	2	0	0	0	stim012_stimuli_original_vehicles_boats_4.png	C	0	0	0	378.353910199949	378.553909000009
88199.5	100	538	14	0	18	34	10	3	0	0	0	stim011_stimuli_original_vehicles_boats_3.png	D	0	0	0	378.753923599957	378.953921600012
88299.5	100	539	14	0	18	35	7	15	0	0	0	stim008_stimuli_original_animals_fish_4.png	Y	0	0	0	379.153931199922	379.353932800004
89878.75	100	540	15	1	47	0	12	15	0	0	0	stim013_stimuli_original_vehicles_planes_1.png	Y	0	0	0	385.470763599966	385.670769099961
89978.75	100	541	15	1	47	1	10	12	0	0	0	stim011_stimuli_original_vehicles_boats_3.png	T	0	0	0	385.870779199991	386.070776499924
90078.75	100	542	15	1	47	2	14	3	0	0	0	stim015_stimuli_original_vehicles_planes_3.png	D	0	0	0	386.270784399938	386.470786699909
90178.75	100	543	15	1	47	3	11	13	0	0	0	stim012_stimuli_original_vehicles_boats_4.png	U	0	0	0	386.670801499975	386.870794599992
90278.75	100	544	15	1	47	4	3	5	0	0	0	stim004_stimuli_original_animals_birds_4.png	F	0	0	0	387.070807199925	387.270810699905
90378.75	100	545	15	1	47	5	13	7	0	0	0	stim014_stimuli_original_vehicles_planes_2.png	J	0	0	0	387.470821899944	387.670813199948
90478.75	100	546	15	1	47	6	4	11	1	0	0	stim005_stimuli_original_animals_fish_1.png	R	0	0	0	387.870825399994	388.070802200004
90578.75	100	547	15	1	47	7	2	9	0	1	0	stim003_stimuli_original_animals_birds_3.png	L	0	0	0	388.270840400015	388.470849599922
90678.75	100	548	15	1	47	8	4	14	1	0	0	stim005_stimuli_original_animals_fish_1.png	V	0	0	0	388.670846599969	388.870848399936
90778.75	100	549	15	1	47	9	6	9	0	1	1	stim007_stimuli_original_animals_fish_3.png	L	0	0	0	389.070863800007	389.270864899969
90878.75	100	550	15	1	47	10	7	10	0	0	0	stim008_stimuli_original_animals_fish_4.png	Q	0	0	0	389.4708772999	389.670872999937
90978.75	100	551	15	1	47	11	8	4	0	0	0	stim009_stimuli_original_vehicles_boats_1.png	E	d	389.863428600016	1	389.870881699957	390.070884499932
91078.75	100	552	15	1	47	12	1	0	0	0	0	stim002_stimuli_original_animals_birds_2.png	A	0	0	0	390.270898999996	390.4708925999
91178.75	100	553	15	1	47	13	9	6	0	0	0	stim010_stimuli_original_vehicles_boats_2.png	G	0	0	0	390.670904599945	390.870904999902
91278.75	100	554	15	1	47	14	15	1	0	0	0	stim016_stimuli_original_vehicles_planes_4.png	B	0	0	0	391.070919999969	391.270919399918
91378.75	100	555	15	1	47	15	5	2	0	0	0	stim006_stimuli_original_animals_fish_2.png	C	0	0	0	391.470929499948	391.670929200016
91478.75	100	556	15	1	47	16	4	9	0	0	0	stim005_stimuli_original_animals_fish_1.png	L	0	0	0	391.870936499909	392.070937099983
91578.75	100	557	15	1	47	17	0	8	0	0	0	stim001_stimuli_original_animals_birds_1.png	K	0	0	0	392.270949399914	392.470923299901
91678.75	100	558	15	1	47	18	8	0	0	0	0	stim009_stimuli_original_vehicles_boats_1.png	A	0	0	0	392.670933599933	392.870933700004
91778.75	100	559	15	1	47	19	9	4	0	0	0	stim010_stimuli_original_vehicles_boats_2.png	E	0	0	0	393.070944199921	393.270952199935
91878.75	100	560	15	1	47	20	2	5	0	0	0	stim003_stimuli_original_animals_birds_3.png	F	0	0	0	393.470955299912	393.670953599969
91978.75	100	561	15	1	47	21	1	15	0	0	0	stim002_stimuli_original_animals_birds_2.png	Y	0	0	0	393.870965500013	394.070965599967
92078.75	100	562	15	1	47	22	6	9	0	0	0	stim007_stimuli_original_animals_fish_3.png	L	0	0	0	394.270976500004	394.470974099939
92178.75	100	563	15	1	47	23	0	1	0	0	0	stim001_stimuli_original_animals_birds_1.png	B	0	0	0	394.670986099984	394.870985499932
92278.75	100	564	15	1	47	24	4	8	0	0	0	stim005_stimuli_original_animals_fish_1.png	K	0	0	0	395.070996899973	395.270997799933
92378.75	100	565	15	1	47	25	10	7	0	0	0	stim011_stimuli_original_vehicles_boats_3.png	J	0	0	0	395.471008699969	395.671008499921
92478.75	100	566	15	1	47	26	9	6	1	0	0	stim010_stimuli_original_vehicles_boats_2.png	G	0	0	0	395.871022599982	396.071017999901
92578.75	100	567	15	1	47	27	14	4	0	1	0	stim015_stimuli_original_vehicles_planes_3.png	E	0	0	0	396.271030299948	396.471030699904
92678.75	100	568	15	1	47	28	9	2	1	0	0	stim010_stimuli_original_vehicles_boats_2.png	C	0	0	0	396.671039999928	396.871039999998
92779	100	569	15	1	47	29	11	4	0	1	1	stim012_stimuli_original_vehicles_boats_4.png	E	0	0	0	397.071050599916	397.271048899973
92879	100	570	15	1	47	30	7	13	0	0	0	stim008_stimuli_original_animals_fish_4.png	U	0	0	0	397.471062699915	397.67106209998
92979	100	571	15	1	47	31	5	3	0	0	0	stim006_stimuli_original_animals_fish_2.png	D	0	0	0	397.871072900016	398.07107169996
93079	100	572	15	1	47	32	13	11	0	0	0	stim014_stimuli_original_vehicles_planes_2.png	R	0	0	0	398.271083700005	398.471083999961
93179	100	573	15	1	47	33	3	14	0	0	0	stim004_stimuli_original_animals_birds_4.png	V	0	0	0	398.67109269998	398.871091799927
93279	100	574	15	1	47	34	12	10	0	0	0	stim013_stimuli_original_vehicles_planes_1.png	Q	0	0	0	399.071106599993	399.271103799925
93379	100	575	15	1	47	35	15	12	0	0	0	stim016_stimuli_original_vehicles_planes_4.png	T	0	0	0	399.471115699969	399.671114899917
94341.5	100	576	16	0	19	0	2	13	0	0	0	stim003_stimuli_original_animals_birds_3.png	U	0	0	0	403.321247200016	403.521243799943
94441.5	100	577	16	0	19	1	10	5	0	0	0	stim011_stimuli_original_vehicles_boats_3.png	F	0	0	0	403.721253199968	403.921256299946
94541.5	100	578	16	0	19	2	12	12	0	0	0	stim013_stimuli_original_vehicles_planes_1.png	T	0	0	0	404.121269199997	404.321253899951
94641.5	100	579	16	0	19	3	3	4	0	0	0	stim004_stimuli_original_animals_birds_4.png	E	0	0	0	404.521280199988	404.721303099999
94741.5	100	580	16	0	19	4	1	14	1	0	0	stim002_stimuli_original_animals_birds_2.png	V	0	0	0	404.921287999954	405.121283899993
94841.5	100	581	16	0	19	5	0	8	0	0	0	stim001_stimuli_original_animals_birds_1.png	K	0	0	0	405.321297399933	405.521299699903
94941.5	100	582	16	0	19	6	1	9	1	0	1	stim002_stimuli_original_animals_birds_2.png	L	0	0	0	405.721307399916	405.921307299985
95041.5	100	583	16	0	19	7	15	1	0	0	0	stim016_stimuli_original_vehicles_planes_4.png	B	d	406.313110899995	1	406.121320799924	406.321307900012
95141.5	100	584	16	0	19	8	14	0	0	0	0	stim015_stimuli_original_vehicles_planes_3.png	A	0	0	0	406.521324399975	406.721302099992
95241.5	100	585	16	0	19	9	7	6	0	0	0	stim008_stimuli_original_animals_fish_4.png	G	0	0	0	406.921315099928	407.121314499993
95341.5	100	586	16	0	19	10	1	12	0	1	0	stim002_stimuli_original_animals_birds_2.png	T	0	0	0	407.321325799916	407.521326199989
95441.5	100	587	16	0	19	11	11	7	0	0	0	stim012_stimuli_original_vehicles_boats_4.png	J	0	0	0	407.721337999916	407.921335599967
95541.5	100	588	16	0	19	12	4	12	0	1	0	stim005_stimuli_original_animals_fish_1.png	T	0	0	0	408.121345099993	408.321347999969
95641.5	100	589	16	0	19	13	9	15	0	0	0	stim010_stimuli_original_vehicles_boats_2.png	Y	0	0	0	408.521357699996	408.721358499955
95741.5	100	590	16	0	19	14	13	3	0	0	0	stim014_stimuli_original_vehicles_planes_2.png	D	0	0	0	408.921393599943	409.121366999927
95841.5	100	591	16	0	19	15	5	10	0	0	0	stim006_stimuli_original_animals_fish_2.png	Q	0	0	0	409.321378499968	409.521378099918
95941.5	100	592	16	0	19	16	8	2	0	0	0	stim009_stimuli_original_vehicles_boats_1.png	C	0	0	0	409.721388899954	409.921389999916
96041.5	100	593	16	0	19	17	6	11	0	0	0	stim007_stimuli_original_animals_fish_3.png	R	0	0	0	410.121398999938	410.321399400011
96141.5	100	594	16	0	19	18	11	6	0	0	0	stim012_stimuli_original_vehicles_boats_4.png	G	0	0	0	410.521410599933	410.721411700011
96241.5	100	595	16	0	19	19	2	8	0	0	0	stim003_stimuli_original_animals_birds_3.png	K	0	0	0	410.921420399914	411.121420299984
96341.5	100	596	16	0	19	20	10	5	0	0	0	stim011_stimuli_original_vehicles_boats_3.png	F	0	0	0	411.321433099918	411.521433999995
96441.5	100	597	16	0	19	21	3	13	0	0	0	stim004_stimuli_original_animals_birds_4.png	U	0	0	0	411.721466999967	411.92144169996
96541.5	100	598	16	0	19	22	15	9	0	0	0	stim016_stimuli_original_vehicles_planes_4.png	L	0	0	0	412.121502799913	412.321453199955
96641.5	100	599	16	0	19	23	12	4	1	0	0	stim013_stimuli_original_vehicles_planes_1.png	E	0	0	0	412.521465500002	412.721462699934
96741.5	100	600	16	0	19	24	7	11	0	0	0	stim008_stimuli_original_animals_fish_4.png	R	0	0	0	412.921473399969	413.121473199921
96841.5	100	601	16	0	19	25	12	1	1	0	1	stim013_stimuli_original_vehicles_planes_1.png	B	0	0	0	413.321487199981	413.521484299912
96941.5	100	602	16	0	19	26	6	7	0	0	0	stim007_stimuli_original_animals_fish_3.png	J	0	0	0	413.721495999955	413.921495399904
97041.5	100	603	16	0	19	27	0	14	0	0	0	stim001_stimuli_original_animals_birds_1.png	V	0	0	0	414.121506599942	414.321523199906
97141.5	100	604	16	0	19	28	1	15	0	0	0	stim002_stimuli_original_animals_birds_2.png	Y	0	0	0	414.521532799932	414.72152859997
97241.5	100	605	16	0	19	29	9	1	0	1	0	stim010_stimuli_original_vehicles_boats_2.png	B	0	0	0	414.921543799923	415.121539199958
97341.5	100	606	16	0	19	30	8	0	0	0	0	stim009_stimuli_original_vehicles_boats_1.png	A	0	0	0	415.32155429991	415.521539199981
97441.5	100	607	16	0	19	31	14	1	0	1	0	stim015_stimuli_original_vehicles_planes_3.png	B	0	0	0	415.721549800015	415.921549399965
97541.5	100	608	16	0	19	32	4	3	0	0	0	stim005_stimuli_original_animals_fish_1.png	D	0	0	0	416.121560300002	416.321561699966
97641.5	100	609	16	0	19	33	12	12	0	0	0	stim013_stimuli_original_vehicles_planes_1.png	T	0	0	0	416.521572500002	416.721568499925
97741.5	100	610	16	0	19	34	5	10	0	0	0	stim006_stimuli_original_animals_fish_2.png	Q	0	0	0	416.921583099989	417.121581599931
97841.5	100	611	16	0	19	35	13	2	0	0	0	stim014_stimuli_original_vehicles_planes_2.png	C	d	417.314142699935	0	417.321593599976	417.52159369993
98629	100	612	17	1	0	0	15	12	0	0	0	stim016_stimuli_original_vehicles_planes_4.png	T	0	0	0	420.471691799932	420.671713499934
98729	100	613	17	1	0	1	1	0	0	0	0	stim002_stimuli_original_animals_birds_2.png	A	0	0	0	420.871715100016	421.071714799968
98829	100	614	17	1	0	2	2	9	0	0	0	stim003_stimuli_original_animals_birds_3.png	L	0	0	0	421.271723099984	421.471722299932
98929	100	615	17	1	0	3	7	1	0	0	0	stim008_stimuli_original_animals_fish_4.png	B	0	0	0	421.67173609999	421.871736399946
99029	100	616	17	1	0	4	10	11	0	0	0	stim011_stimuli_original_vehicles_boats_3.png	R	0	0	0	422.071744499961	422.271744099911
99129	100	617	17	1	0	5	12	4	0	1	0	stim013_stimuli_original_vehicles_planes_1.png	E	0	0	0	422.471755499952	422.671756899916
99229	100	618	17	1	0	6	6	2	0	0	0	stim007_stimuli_original_animals_fish_3.png	C	0	0	0	422.871767999954	423.071767299902
99329	100	619	17	1	0	7	13	4	0	1	1	stim014_stimuli_original_vehicles_planes_2.png	E	0	0	0	423.271784899989	423.471777400002
99429	100	620	17	1	0	8	9	3	0	0	0	stim010_stimuli_original_vehicles_boats_2.png	D	0	0	0	423.671789799933	423.87178669998
99529	100	621	17	1	0	9	4	10	0	0	0	stim005_stimuli_original_animals_fish_1.png	Q	d	424.064383399906	1	424.071796500008	424.27178239997
99629	100	622	17	1	0	10	13	15	1	0	0	stim014_stimuli_original_vehicles_planes_2.png	Y	0	0	0	424.471808600007	424.671810899978
99729	100	623	17	1	0	11	11	5	0	0	0	stim012_stimuli_original_vehicles_boats_4.png	F	0	0	0	424.871818099986	425.071819299948
99829	100	624	17	1	0	12	13	14	1	0	0	stim014_stimuli_original_vehicles_planes_2.png	V	0	0	0	425.271832099999	425.471829699934
99929	100	625	17	1	0	13	8	8	0	0	0	stim009_stimuli_original_vehicles_boats_1.png	K	0	0	0	425.67184179998	425.871841999935
100029	100	626	17	1	0	14	3	6	0	0	0	stim004_stimuli_original_animals_birds_4.png	G	0	0	0	426.071840399993	426.271855299943
100129	100	627	17	1	0	15	14	13	0	0	0	stim015_stimuli_original_vehicles_planes_3.png	U	0	0	0	426.471862699953	426.671846500016
100229	100	628	17	1	0	16	0	7	0	0	0	stim001_stimuli_original_animals_birds_1.png	J	0	0	0	426.871878099977	427.071874399902
100329	100	629	17	1	0	17	5	4	0	0	0	stim006_stimuli_original_animals_fish_2.png	E	0	0	0	427.271882199915	427.471887999913
100429	100	630	17	1	0	18	4	5	0	0	0	stim005_stimuli_original_animals_fish_1.png	F	0	0	0	427.671879099915	427.871894899989
100529	100	631	17	1	0	19	7	0	0	0	0	stim008_stimuli_original_animals_fish_4.png	A	0	0	0	428.071907699923	428.271904899972
100629	100	632	17	1	0	20	13	14	0	0	0	stim014_stimuli_original_vehicles_planes_2.png	V	0	0	0	428.471903999918	428.671930399956
100729	100	633	17	1	0	21	6	3	0	0	0	stim007_stimuli_original_animals_fish_3.png	D	0	0	0	428.871926899999	429.07192779996
100829	100	634	17	1	0	22	8	8	0	0	0	stim009_stimuli_original_vehicles_boats_1.png	K	0	0	0	429.271937599988	429.471937899943
100929	100	635	17	1	0	23	14	13	0	1	0	stim015_stimuli_original_vehicles_planes_3.png	U	0	0	0	429.671932799974	429.871948099928
101029	100	636	17	1	0	24	5	11	0	0	0	stim006_stimuli_original_animals_fish_2.png	R	0	0	0	430.071957499953	430.271956200013
101129	100	637	17	1	0	25	15	13	0	1	1	stim016_stimuli_original_vehicles_planes_4.png	U	0	0	0	430.471974099986	430.671968999901
101229	100	638	17	1	0	26	10	4	0	0	0	stim011_stimuli_original_vehicles_boats_3.png	E	0	0	0	430.871986899991	431.071978399996
101329	100	639	17	1	0	27	3	9	0	0	0	stim004_stimuli_original_animals_birds_4.png	L	0	0	0	431.271990499925	431.47198459995
101429	100	640	17	1	0	28	4	13	1	0	0	stim005_stimuli_original_animals_fish_1.png	U	0	0	0	431.67200869997	431.872001399985
101529	100	641	17	1	0	29	2	6	0	0	0	stim003_stimuli_original_animals_birds_3.png	G	0	0	0	432.07199769991	432.272023799946
101629	100	642	17	1	0	30	4	12	1	0	0	stim005_stimuli_original_animals_fish_1.png	T	d	432.464553399943	1	432.472023300012	432.671998700011
101729	100	643	17	1	0	31	11	10	0	0	0	stim012_stimuli_original_vehicles_boats_4.png	Q	0	0	0	432.872008399921	433.072007699986
101829	100	644	17	1	0	32	1	7	0	0	0	stim002_stimuli_original_animals_birds_2.png	J	0	0	0	433.272018999909	433.472017499967
101929	100	645	17	1	0	33	9	2	0	0	0	stim010_stimuli_original_vehicles_boats_2.png	C	0	0	0	433.672028500005	433.872029699967
102029	100	646	17	1	0	34	0	1	0	0	0	stim001_stimuli_original_animals_birds_1.png	B	0	0	0	434.072041000007	434.272039799951
102129	100	647	17	1	0	35	12	15	0	0	0	stim013_stimuli_original_vehicles_planes_1.png	Y	0	0	0	434.472051399993	434.67204929993
102770.75	100	648	18	0	31	0	1	10	0	0	0	stim002_stimuli_original_animals_birds_2.png	Q	0	0	0	437.038789599901	437.238786099944
102870.75	100	649	18	0	31	1	8	0	0	0	0	stim009_stimuli_original_vehicles_boats_1.png	A	0	0	0	437.438796599978	437.63879639993
102970.75	100	650	18	0	31	2	0	11	0	0	0	stim001_stimuli_original_animals_birds_1.png	R	0	0	0	437.838833899936	438.03880599991
103070.75	100	651	18	0	31	3	13	12	0	0	0	stim014_stimuli_original_vehicles_planes_2.png	T	0	0	0	438.238819099963	438.438832899905
103170.75	100	652	18	0	31	4	3	7	0	0	0	stim004_stimuli_original_animals_birds_4.png	J	0	0	0	438.638828799943	438.838833399932
103270.75	100	653	18	0	31	5	2	4	0	0	0	stim003_stimuli_original_animals_birds_3.png	E	0	0	0	439.03884059994	439.238839199999
103370.75	100	654	18	0	31	6	14	8	0	0	0	stim015_stimuli_original_vehicles_planes_3.png	K	0	0	0	439.438855199958	439.638849999988
103470.75	100	655	18	0	31	7	5	13	0	0	0	stim006_stimuli_original_animals_fish_2.png	U	0	0	0	439.838866499951	440.038860399975
103570.75	100	656	18	0	31	8	11	14	0	0	0	stim012_stimuli_original_vehicles_boats_4.png	V	0	0	0	440.238870700006	440.438881499926
103670.75	100	657	18	0	31	9	12	6	0	0	0	stim013_stimuli_original_vehicles_planes_1.png	G	0	0	0	440.638881499995	440.83888029994
103770.75	100	658	18	0	31	10	1	4	1	1	0	stim002_stimuli_original_animals_birds_2.png	E	0	0	0	441.038905299967	441.238892099936
103870.75	100	659	18	0	31	11	4	15	0	0	0	stim005_stimuli_original_animals_fish_1.png	Y	0	0	0	441.438904699986	441.638902799925
103970.75	100	660	18	0	31	12	1	4	1	1	1	stim002_stimuli_original_animals_birds_2.png	E	0	0	0	441.838915399974	442.038912399905
104070.75	100	661	18	0	31	13	9	3	0	0	0	stim010_stimuli_original_vehicles_boats_2.png	D	d	442.430722099962	1	442.238927299972	442.438928099931
104170.75	100	662	18	0	31	14	15	2	0	0	0	stim016_stimuli_original_vehicles_planes_4.png	C	0	0	0	442.638936199946	442.8389341
104270.75	100	663	18	0	31	15	6	1	0	0	0	stim007_stimuli_original_animals_fish_3.png	B	0	0	0	443.038960099919	443.238945999998
104370.75	100	664	18	0	31	16	10	5	0	0	0	stim011_stimuli_original_vehicles_boats_3.png	F	0	0	0	443.438957299921	443.638957999996
104470.75	100	665	18	0	31	17	7	9	0	0	0	stim008_stimuli_original_animals_fish_4.png	L	0	0	0	443.838969799923	444.038966499968
104570.75	100	666	18	0	31	18	9	7	0	0	0	stim010_stimuli_original_vehicles_boats_2.png	J	0	0	0	444.2389790999	444.438978299964
104670.75	100	667	18	0	31	19	5	10	0	0	0	stim006_stimuli_original_animals_fish_2.png	Q	0	0	0	444.638989200001	444.83898739994
104770.75	100	668	18	0	31	20	1	6	0	0	0	stim002_stimuli_original_animals_birds_2.png	G	0	0	0	445.038999499986	445.239032499958
104870.75	100	669	18	0	31	21	2	15	0	0	0	stim003_stimuli_original_animals_birds_3.png	Y	0	0	0	445.439010099974	445.639009599923
104970.75	100	670	18	0	31	22	3	9	0	0	0	stim004_stimuli_original_animals_birds_4.png	L	0	0	0	445.839036499965	446.039019299904
105070.75	100	671	18	0	31	23	4	1	1	1	0	stim005_stimuli_original_animals_fish_1.png	B	0	0	0	446.239031299949	446.439031399903
105170.75	100	672	18	0	31	24	15	4	0	0	0	stim016_stimuli_original_vehicles_planes_4.png	E	0	0	0	446.639043899952	446.839042700012
105270.75	100	673	18	0	31	25	4	1	1	1	1	stim005_stimuli_original_animals_fish_1.png	B	0	0	0	447.039054399938	447.239055200014
105370.75	100	674	18	0	31	26	6	12	0	0	0	stim007_stimuli_original_animals_fish_3.png	T	0	0	0	447.439065299928	447.639063899987
105470.75	100	675	18	0	31	27	14	11	0	0	0	stim015_stimuli_original_vehicles_planes_3.png	R	0	0	0	447.8391023	448.039076299989
105570.75	100	676	18	0	31	28	13	5	0	0	0	stim014_stimuli_original_vehicles_planes_2.png	F	0	0	0	448.239085300011	448.439093399909
105670.75	100	677	18	0	31	29	8	14	0	0	0	stim009_stimuli_original_vehicles_boats_1.png	V	0	0	0	448.639096500003	448.839099399978
105770.75	100	678	18	0	31	30	4	2	0	0	0	stim005_stimuli_original_animals_fish_1.png	C	0	0	0	449.039105999982	449.239107999951
105870.75	100	679	18	0	31	31	7	3	0	0	0	stim008_stimuli_original_animals_fish_4.png	D	0	0	0	449.439118299983	449.639115399914
105970.75	100	680	18	0	31	32	12	13	0	0	0	stim013_stimuli_original_vehicles_planes_1.png	U	0	0	0	449.839128999971	450.039132199949
106070.75	100	681	18	0	31	33	11	0	0	0	0	stim012_stimuli_original_vehicles_boats_4.png	A	0	0	0	450.239139099955	450.439150899998
106170.75	100	682	18	0	31	34	0	8	0	0	0	stim001_stimuli_original_animals_birds_1.png	K	0	0	0	450.639150599949	450.839148800005
106270.75	100	683	18	0	31	35	10	1	0	0	0	stim011_stimuli_original_vehicles_boats_3.png	B	0	0	0	451.039173799916	451.239159799996
106950	100	684	19	1	24	0	7	10	0	0	0	stim008_stimuli_original_animals_fish_4.png	Q	0	0	0	453.755933700013	453.955932599958
107050	100	685	19	1	24	1	6	2	0	0	0	stim007_stimuli_original_animals_fish_3.png	C	0	0	0	454.15594159998	454.35593109997
107150	100	686	19	1	24	2	5	12	0	0	0	stim006_stimuli_original_animals_fish_2.png	T	0	0	0	454.555951699964	454.75595729996
107250	100	687	19	1	24	3	10	5	0	0	0	stim011_stimuli_original_vehicles_boats_3.png	F	0	0	0	454.955953600002	455.155946100014
107350	100	688	19	1	24	4	0	4	0	0	0	stim001_stimuli_original_animals_birds_1.png	E	0	0	0	455.355974799953	455.55599709996
107450	100	689	19	1	24	5	7	15	1	0	0	stim008_stimuli_original_animals_fish_4.png	Y	0	0	0	455.755984999938	455.955984300002
107550	100	690	19	1	24	6	2	13	0	0	0	stim003_stimuli_original_animals_birds_3.png	U	0	0	0	456.155993699911	456.355999099906
107650	100	691	19	1	24	7	7	2	1	1	0	stim008_stimuli_original_animals_fish_4.png	C	0	0	0	456.55601239996	456.756005399977
107750	100	692	19	1	24	8	4	1	0	0	0	stim005_stimuli_original_animals_fish_1.png	B	0	0	0	456.956014700001	457.156018399983
107850	100	693	19	1	24	9	3	2	0	1	1	stim004_stimuli_original_animals_birds_4.png	C	0	0	0	457.356028800015	457.55602239992
107950	100	694	19	1	24	10	13	11	0	0	0	stim014_stimuli_original_vehicles_planes_2.png	R	0	0	0	457.756038099993	457.956039599958
108050	100	695	19	1	24	11	12	14	0	0	0	stim013_stimuli_original_vehicles_planes_1.png	V	d	458.148617999977	1	458.156053999905	458.356046599918
108150	100	696	19	1	24	12	15	9	0	0	0	stim016_stimuli_original_vehicles_planes_4.png	L	0	0	0	458.556063700002	458.756044099922
108250	100	697	19	1	24	13	1	8	0	0	0	stim002_stimuli_original_animals_birds_2.png	K	0	0	0	458.956069699954	459.15607129992
108350	100	698	19	1	24	14	9	6	0	0	0	stim010_stimuli_original_vehicles_boats_2.png	G	0	0	0	459.35607999994	459.556105799973
108450	100	699	19	1	24	15	11	3	0	0	0	stim012_stimuli_original_vehicles_boats_4.png	D	0	0	0	459.756091799936	459.956089999992
108550	100	700	19	1	24	16	14	0	0	0	0	stim015_stimuli_original_vehicles_planes_3.png	A	0	0	0	460.156103099929	460.356099799974
108650	100	701	19	1	24	17	8	7	0	0	0	stim009_stimuli_original_vehicles_boats_1.png	J	0	0	0	460.556116199936	460.75611409999
108750	100	702	19	1	24	18	7	8	0	0	0	stim008_stimuli_original_animals_fish_4.png	K	0	0	0	460.956124599907	461.156123999972
108850	100	703	19	1	24	19	0	14	0	0	0	stim001_stimuli_original_animals_birds_1.png	V	0	0	0	461.356133399997	461.55613329995
108950	100	704	19	1	24	20	3	11	0	0	0	stim004_stimuli_original_animals_birds_4.png	R	0	0	0	461.756131000002	461.956141999923
109050	100	705	19	1	24	21	6	9	0	0	0	stim007_stimuli_original_animals_fish_3.png	L	0	0	0	462.156172399991	462.356158099952
109150	100	706	19	1	24	22	8	1	0	0	0	stim009_stimuli_original_vehicles_boats_1.png	B	0	0	0	462.556169399992	462.756165599916
109250	100	707	19	1	24	23	9	15	0	0	0	stim010_stimuli_original_vehicles_boats_2.png	Y	0	0	0	462.956164999981	463.156175600016
109350	100	708	19	1	24	24	14	12	0	0	0	stim015_stimuli_original_vehicles_planes_3.png	T	0	0	0	463.356172399945	463.556186000002
109450	100	709	19	1	24	25	11	13	0	0	0	stim012_stimuli_original_vehicles_boats_4.png	U	0	0	0	463.756197799928	463.956197399995
109550	100	710	19	1	24	26	2	3	1	0	0	stim003_stimuli_original_animals_birds_3.png	D	0	0	0	464.156208799919	464.356210099999
109650	100	711	19	1	24	27	1	4	0	0	0	stim002_stimuli_original_animals_birds_2.png	E	0	0	0	464.556223699939	464.756217899965
109750	100	712	19	1	24	28	2	7	1	1	0	stim003_stimuli_original_animals_birds_3.png	J	0	0	0	464.956232499913	465.156230099965
109850	100	713	19	1	24	29	13	2	0	0	0	stim014_stimuli_original_vehicles_planes_2.png	C	0	0	0	465.356240599998	465.556240499951
109950.25	100	714	19	1	24	30	15	7	0	1	1	stim016_stimuli_original_vehicles_planes_4.png	J	0	0	0	465.756253900006	465.956249499926
110050.25	100	715	19	1	24	31	4	0	0	0	0	stim005_stimuli_original_animals_fish_1.png	A	0	0	0	466.156266800012	466.356260799919
110150.25	100	716	19	1	24	32	5	10	0	0	0	stim006_stimuli_original_animals_fish_2.png	Q	d	466.748056299984	1	466.556271299953	466.75627449993
110250.25	100	717	19	1	24	33	12	5	0	0	0	stim013_stimuli_original_vehicles_planes_1.png	F	0	0	0	466.956276200013	467.156285099918
110350.25	100	718	19	1	24	34	2	6	0	0	0	stim003_stimuli_original_animals_birds_3.png	G	0	0	0	467.356297899969	467.55628229992
110450.25	100	719	19	1	24	35	10	7	0	0	0	stim011_stimuli_original_vehicles_boats_3.png	J	0	0	0	467.756304599927	467.956308299908
111012.75	100	720	20	0	42	0	2	11	0	0	0	stim003_stimuli_original_animals_birds_3.png	R	0	0	0	470.006335799932	470.20636099996
111112.75	100	721	20	0	42	1	12	8	0	0	0	stim013_stimuli_original_vehicles_planes_1.png	K	0	0	0	470.406371899997	470.606352999923
111212.75	100	722	20	0	42	2	7	1	0	0	0	stim008_stimuli_original_animals_fish_4.png	B	0	0	0	470.806384900003	471.006392100011
111312.75	100	723	20	0	42	3	4	6	0	0	0	stim005_stimuli_original_animals_fish_1.png	G	0	0	0	471.206388999941	471.406396199949
111412.75	100	724	20	0	42	4	13	5	0	0	0	stim014_stimuli_original_vehicles_planes_2.png	F	0	0	0	471.606408899999	471.806401900016
111512.75	100	725	20	0	42	5	14	0	0	0	0	stim015_stimuli_original_vehicles_planes_3.png	A	0	0	0	472.006412399933	472.206412300002
111612.75	100	726	20	0	42	6	10	9	0	0	0	stim011_stimuli_original_vehicles_boats_3.png	L	0	0	0	472.406428699964	472.606412399909
111712.75	100	727	20	0	42	7	6	3	0	0	0	stim007_stimuli_original_animals_fish_3.png	D	0	0	0	472.806423399947	473.006439299905
111812.75	100	728	20	0	42	8	4	2	1	0	0	stim005_stimuli_original_animals_fish_1.png	C	0	0	0	473.206424799981	473.406446699984
111912.75	100	729	20	0	42	9	11	14	0	0	0	stim012_stimuli_original_vehicles_boats_4.png	V	0	0	0	473.606459999923	473.806444599992
112012.75	100	730	20	0	42	10	4	15	1	0	1	stim005_stimuli_original_animals_fish_1.png	Y	0	0	0	474.006466999999	474.20646659995
112112.75	100	731	20	0	42	11	3	3	0	1	0	stim004_stimuli_original_animals_birds_4.png	D	0	0	0	474.406478499994	474.606481399969
112212.75	100	732	20	0	42	12	8	10	0	0	0	stim009_stimuli_original_vehicles_boats_1.png	Q	d	474.998302799999	1	474.806489299983	475.006489199935
112312.75	100	733	20	0	42	13	9	3	0	1	0	stim010_stimuli_original_vehicles_boats_2.png	D	0	0	0	475.206503900001	475.406501299934
112412.75	100	734	20	0	42	14	1	4	0	0	0	stim002_stimuli_original_animals_birds_2.png	E	0	0	0	475.606511599966	475.80651819997
112512.75	100	735	20	0	42	15	5	12	0	0	0	stim006_stimuli_original_animals_fish_2.png	T	0	0	0	476.006520699942	476.206520300009
112612.75	100	736	20	0	42	16	15	7	0	0	0	stim016_stimuli_original_vehicles_planes_4.png	J	0	0	0	476.406518699951	476.606530799996
112712.75	100	737	20	0	42	17	0	13	0	0	0	stim001_stimuli_original_animals_birds_1.png	U	0	0	0	476.806541099912	477.006527099991
112812.75	100	738	20	0	42	18	13	0	0	0	0	stim014_stimuli_original_vehicles_planes_2.png	A	0	0	0	477.206554099917	477.406550699961
112912.75	100	739	20	0	42	19	7	15	0	0	0	stim008_stimuli_original_animals_fish_4.png	Y	0	0	0	477.606565899914	477.806566499989
113012.75	100	740	20	0	42	20	12	5	0	0	0	stim013_stimuli_original_vehicles_planes_1.png	F	0	0	0	478.006554299966	478.206574699958
113112.75	100	741	20	0	42	21	4	1	0	0	0	stim005_stimuli_original_animals_fish_1.png	B	0	0	0	478.40658979991	478.606590699987
113212.75	100	742	20	0	42	22	3	9	1	0	0	stim004_stimuli_original_animals_birds_4.png	L	0	0	0	478.80659589998	479.006597799947
113312.75	100	743	20	0	42	23	10	8	0	0	0	stim011_stimuli_original_vehicles_boats_3.png	K	0	0	0	479.206610299996	479.406608299934
113412.75	100	744	20	0	42	24	3	3	1	0	1	stim004_stimuli_original_animals_birds_4.png	D	0	0	0	479.606617699959	479.806616599904
113512.75	100	745	20	0	42	25	15	4	0	1	0	stim016_stimuli_original_vehicles_planes_4.png	E	0	0	0	480.006630799966	480.206635299954
113612.75	100	746	20	0	42	26	14	11	0	0	0	stim015_stimuli_original_vehicles_planes_3.png	R	0	0	0	480.406624099938	480.606632699957
113712.75	100	747	20	0	42	27	2	4	0	1	0	stim003_stimuli_original_animals_birds_3.png	E	0	0	0	480.806663999916	481.006658199942
113812.75	100	748	20	0	42	28	3	6	0	0	0	stim004_stimuli_original_animals_birds_4.png	G	0	0	0	481.20666139992	481.4066649999
113912.75	100	749	20	0	42	29	9	10	0	0	0	stim010_stimuli_original_vehicles_boats_2.png	Q	0	0	0	481.606679899967	481.806663799915
114012.75	100	750	20	0	42	30	0	14	0	0	0	stim001_stimuli_original_animals_birds_1.png	V	0	0	0	482.00668859994	482.206673200009
114112.75	100	751	20	0	42	31	5	13	0	0	0	stim006_stimuli_original_animals_fish_2.png	U	0	0	0	482.406696999911	482.606681799982
114212.75	100	752	20	0	42	32	6	4	0	0	0	stim007_stimuli_original_animals_fish_3.png	E	0	0	0	482.806713499944	483.006706999964
114312.75	100	753	20	0	42	33	1	7	0	0	0	stim002_stimuli_original_animals_birds_2.png	J	0	0	0	483.206742099952	483.406718799961
114412.75	100	754	20	0	42	34	8	12	0	0	0	stim009_stimuli_original_vehicles_boats_1.png	T	0	0	0	483.606731000007	483.806727599935
114512.75	100	755	20	0	42	35	11	2	0	0	0	stim012_stimuli_original_vehicles_boats_4.png	C	0	0	0	484.006721599959	484.206720899907
115217	100	756	21	1	23	0	3	14	0	0	0	stim004_stimuli_original_animals_birds_4.png	V	0	0	0	486.823480799911	487.023481699987
115317	100	757	21	1	23	1	11	5	0	0	0	stim012_stimuli_original_vehicles_boats_4.png	F	0	0	0	487.223488799995	487.423487399938
115417	100	758	21	1	23	2	1	11	0	0	0	stim002_stimuli_original_animals_birds_2.png	R	0	0	0	487.623498699977	487.823501099949
115517	100	759	21	1	23	3	8	15	0	0	0	stim009_stimuli_original_vehicles_boats_1.png	Y	0	0	0	488.02350999997	488.223508499912
115617	100	760	21	1	23	4	5	9	0	0	0	stim006_stimuli_original_animals_fish_2.png	L	0	0	0	488.423525299993	488.62350300001
115717	100	761	21	1	23	5	6	10	0	0	0	stim007_stimuli_original_animals_fish_3.png	Q	0	0	0	488.82352659991	489.023529400001
115817	100	762	21	1	23	6	15	7	0	0	0	stim016_stimuli_original_vehicles_planes_4.png	J	0	0	0	489.223539299914	489.42353879998
115917	100	763	21	1	23	7	4	2	0	0	0	stim005_stimuli_original_animals_fish_1.png	C	0	0	0	489.623551699915	489.823552199989
116017	100	764	21	1	23	8	12	8	0	0	0	stim013_stimuli_original_vehicles_planes_1.png	K	0	0	0	490.0235619999	490.223561499966
116117	100	765	21	1	23	9	7	1	0	0	0	stim008_stimuli_original_animals_fish_4.png	B	0	0	0	490.423574299901	490.623574599973
116217	100	766	21	1	23	10	4	0	1	0	0	stim005_stimuli_original_animals_fish_1.png	A	0	0	0	490.823583899997	491.023583199945
116317	100	767	21	1	23	11	13	7	0	1	0	stim014_stimuli_original_vehicles_planes_2.png	J	0	0	0	491.223593399976	491.423607599922
116417	100	768	21	1	23	12	4	3	1	0	0	stim005_stimuli_original_animals_fish_1.png	D	0	0	0	491.623603899963	491.82360569993
116517	100	769	21	1	23	13	0	7	0	1	1	stim001_stimuli_original_animals_birds_1.png	J	0	0	0	492.023614799953	492.223615599913
116617	100	770	21	1	23	14	2	13	0	0	0	stim003_stimuli_original_animals_birds_3.png	U	d	492.615413199994	1	492.423628599965	492.623611799907
116717	100	771	21	1	23	15	14	6	0	0	0	stim015_stimuli_original_vehicles_planes_3.png	G	0	0	0	492.823638499947	493.023640499916
116817	100	772	21	1	23	16	9	12	0	0	0	stim010_stimuli_original_vehicles_boats_2.png	T	0	0	0	493.223647299921	493.423632499995
116917	100	773	21	1	23	17	10	4	0	0	0	stim011_stimuli_original_vehicles_boats_3.png	E	0	0	0	493.623663699953	493.823660399998
117017	100	774	21	1	23	18	4	10	0	0	0	stim005_stimuli_original_animals_fish_1.png	Q	0	0	0	494.023678499972	494.223672499997
117117	100	775	21	1	23	19	12	9	0	0	0	stim013_stimuli_original_vehicles_planes_1.png	L	0	0	0	494.423680300009	494.623665699968
117217	100	776	21	1	23	20	6	14	0	0	0	stim007_stimuli_original_animals_fish_3.png	V	0	0	0	494.823690399993	495.02369089995
117317	100	777	21	1	23	21	13	2	0	0	0	stim014_stimuli_original_vehicles_planes_2.png	C	0	0	0	495.223677399918	495.423676999984
117417	100	778	21	1	23	22	7	0	1	0	0	stim008_stimuli_original_animals_fish_4.png	A	0	0	0	495.623686600011	495.823685199954
117517	100	779	21	1	23	23	3	4	0	1	0	stim004_stimuli_original_animals_birds_4.png	E	0	0	0	496.023695599986	496.223696299945
117617	100	780	21	1	23	24	7	13	1	0	0	stim008_stimuli_original_animals_fish_4.png	U	0	0	0	496.42370699998	496.623705699923
117717	100	781	21	1	23	25	0	4	0	1	1	stim001_stimuli_original_animals_birds_1.png	E	0	0	0	496.823717399966	497.023718999932
117817	100	782	21	1	23	26	1	7	0	0	0	stim002_stimuli_original_animals_birds_2.png	J	0	0	0	497.22372889996	497.423727599904
117917	100	783	21	1	23	27	8	12	0	0	0	stim009_stimuli_original_vehicles_boats_1.png	T	0	0	0	497.623741299962	497.823737500003
118017	100	784	21	1	23	28	2	4	0	0	0	stim003_stimuli_original_animals_birds_3.png	E	0	0	0	498.023748899926	498.223750500008
118117	100	785	21	1	23	29	7	15	0	0	0	stim008_stimuli_original_animals_fish_4.png	Y	0	0	0	498.423760899925	498.623760499991
118217	100	786	21	1	23	30	10	6	0	0	0	stim011_stimuli_original_vehicles_boats_3.png	G	d	498.816291399999	1	498.823770499905	499.023771799984
118317	100	787	21	1	23	31	9	5	0	0	0	stim010_stimuli_original_vehicles_boats_2.png	F	0	0	0	499.223784099915	499.423781599966
118417	100	788	21	1	23	32	15	8	0	0	0	stim016_stimuli_original_vehicles_planes_4.png	K	0	0	0	499.623793100007	499.82379169995
118517	100	789	21	1	23	33	11	1	0	0	0	stim012_stimuli_original_vehicles_boats_4.png	B	0	0	0	500.023805200006	500.223803599947
118617	100	790	21	1	23	34	5	11	0	0	0	stim006_stimuli_original_animals_fish_2.png	R	0	0	0	500.423814999987	500.623814499937
118717	100	791	21	1	23	35	14	3	0	0	0	stim015_stimuli_original_vehicles_planes_3.png	D	0	0	0	500.823824399966	501.023825399927
119458.75	100	792	22	0	5	0	13	12	0	0	0	stim014_stimuli_original_vehicles_planes_2.png	T	0	0	0	503.790613799938	503.99059619999
119558.75	100	793	22	0	5	1	4	8	0	0	0	stim005_stimuli_original_animals_fish_1.png	K	0	0	0	504.190612099948	504.390601299936
119658.75	100	794	22	0	5	2	8	14	0	0	0	stim009_stimuli_original_vehicles_boats_1.png	V	0	0	0	504.590618999908	504.790618599975
119758.75	100	795	22	0	5	3	10	0	0	0	0	stim011_stimuli_original_vehicles_boats_3.png	A	0	0	0	504.990628	505.190627499949
119858.75	100	796	22	0	5	4	2	6	0	0	0	stim003_stimuli_original_animals_birds_3.png	G	0	0	0	505.390639599995	505.59067309997
119958.75	100	797	22	0	5	5	6	1	1	0	0	stim007_stimuli_original_animals_fish_3.png	B	0	0	0	505.790654799901	505.990633199923
120058.75	100	798	22	0	5	6	7	12	0	1	0	stim008_stimuli_original_animals_fish_4.png	T	0	0	0	506.190662899986	506.390665199957
