onset	duration	eventnumber	sequencenumber	condition	streamnumber	stimnumber	objectstimnumber	letterstimnumber	objecttarget	lettertarget	is2back	objectstim	letterstim	response	rt	correct	time_stimon	time_stimoff
33863.25	100	0	0	0	39	0	13	15	0	0	0	stim014_stimuli_original_vehicles_planes_2.png	Y	0	0	0	161.789734999882	161.989986599889
33963.25	100	1	0	0	39	1	5	14	0	0	0	stim006_stimuli_original_animals_fish_2.png	V	0	0	0	162.189729499863	162.389728099806
34063.25	100	2	0	0	39	2	8	6	0	0	0	stim009_stimuli_original_vehicles_boats_1.png	G	0	0	0	162.589737599948	162.789740599925
34163.25	100	3	0	0	39	3	7	10	0	0	0	stim008_stimuli_original_animals_fish_4.png	Q	0	0	0	162.989750399953	163.1897516998
34263.25	100	4	0	0	39	4	12	9	0	0	0	stim013_stimuli_original_vehicles_planes_1.png	L	0	0	0	163.389758299803	163.589758799877
34363.25	100	5	0	0	39	5	1	2	1	0	0	stim002_stimuli_original_animals_birds_2.png	C	d	163.981592399999	0	163.789768999908	163.989796199836
34463.25	100	6	0	0	39	6	11	12	0	0	0	stim012_stimuli_original_vehicles_boats_4.png	T	0	0	0	164.189783199923	164.389782699989
34563.25	100	7	0	0	39	7	1	13	1	0	1	stim002_stimuli_original_animals_birds_2.png	U	0	0	0	164.589793599909	164.78979459987
34663.25	100	8	0	0	39	8	6	8	0	0	0	stim007_stimuli_original_animals_fish_3.png	K	0	0	0	164.989801299991	165.189790599979
34763.25	100	9	0	0	39	9	3	4	0	0	0	stim004_stimuli_original_animals_birds_4.png	E	0	0	0	165.389804199804	165.589801799972
34863.25	100	10	0	0	39	10	2	1	0	0	0	stim003_stimuli_original_animals_birds_3.png	B	0	0	0	165.789811899886	165.98981209984
34963.25	100	11	0	0	39	11	1	15	0	1	0	stim002_stimuli_original_animals_birds_2.png	Y	0	0	0	166.189822499873	166.389821299817
35063.25	100	12	0	0	39	12	9	0	0	0	0	stim010_stimuli_original_vehicles_boats_2.png	A	0	0	0	166.589875999838	166.789835299831
35163.25	100	13	0	0	39	13	10	15	0	1	0	stim011_stimuli_original_vehicles_boats_3.png	Y	0	0	0	166.98984389985	167.189844199922
35263.25	100	14	0	0	39	14	15	11	0	0	0	stim016_stimuli_original_vehicles_planes_4.png	R	0	0	0	167.390020299936	167.58989199996
35363.25	100	15	0	0	39	15	0	3	0	0	0	stim001_stimuli_original_animals_birds_1.png	D	0	0	0	167.789889199892	167.989893799881
35463.25	100	16	0	0	39	16	14	5	0	0	0	stim015_stimuli_original_vehicles_planes_3.png	F	0	0	0	168.189896599855	168.389890199993
35563.25	100	17	0	0	39	17	4	7	0	0	0	stim005_stimuli_original_animals_fish_1.png	J	0	0	0	168.589903699933	168.789899899857
35663.25	100	18	0	0	39	18	7	4	0	0	0	stim008_stimuli_original_animals_fish_4.png	E	0	0	0	168.98991639982	169.189912199974
35763.25	100	19	0	0	39	19	5	14	0	0	0	stim006_stimuli_original_animals_fish_2.png	V	0	0	0	169.389924200019	169.589930499904
35863.25	100	20	0	0	39	20	3	0	0	0	0	stim004_stimuli_original_animals_birds_4.png	A	d	169.98177199997	0	169.789948199876	169.989938499872
35963.25	100	21	0	0	39	21	11	15	0	0	0	stim012_stimuli_original_vehicles_boats_4.png	Y	0	0	0	170.189952099929	170.389951599995
36063.25	100	22	0	0	39	22	15	10	1	0	0	stim016_stimuli_original_vehicles_planes_4.png	Q	0	0	0	170.589957399992	170.789963399991
36163.25	100	23	0	0	39	23	0	9	0	0	0	stim001_stimuli_original_animals_birds_1.png	L	0	0	0	170.989969499875	171.18997229985
36263.25	100	24	0	0	39	24	15	1	1	0	1	stim016_stimuli_original_vehicles_planes_4.png	B	0	0	0	171.389980699867	171.589987299871
36363.25	100	25	0	0	39	25	1	2	0	0	0	stim002_stimuli_original_animals_birds_2.png	C	0	0	0	171.789969199803	171.98999289982
36463.25	100	26	0	0	39	26	4	3	0	0	0	stim005_stimuli_original_animals_fish_1.png	D	0	0	0	172.190008099889	172.390003799926
36563.25	100	27	0	0	39	27	8	6	0	0	0	stim009_stimuli_original_vehicles_boats_1.png	G	0	0	0	172.590013499837	172.790019399952
36663.25	100	28	0	0	39	28	13	1	0	1	0	stim014_stimuli_original_vehicles_planes_2.png	B	0	0	0	172.990017999895	173.190024399897
36763.25	100	29	0	0	39	29	12	11	0	0	0	stim013_stimuli_original_vehicles_planes_1.png	R	0	0	0	173.39003739995	173.590039699804
36863.25	100	30	0	0	39	30	2	1	0	1	0	stim003_stimuli_original_animals_birds_3.png	B	0	0	0	173.790040999884	173.990046799881
36963.25	100	31	0	0	39	31	9	12	0	0	0	stim010_stimuli_original_vehicles_boats_2.png	T	0	0	0	174.190051599871	174.390058299992
37063.25	100	32	0	0	39	32	10	7	0	0	0	stim011_stimuli_original_vehicles_boats_3.png	J	0	0	0	174.590063299984	174.790066199843
37163.25	100	33	0	0	39	33	6	8	0	0	0	stim007_stimuli_original_animals_fish_3.png	K	0	0	0	174.990079999901	175.190076399827
37263.25	100	34	0	0	39	34	14	5	0	0	0	stim015_stimuli_original_vehicles_planes_3.png	F	0	0	0	175.39009689982	175.590082099894
37363.25	100	35	0	0	39	35	15	13	0	0	0	stim016_stimuli_original_vehicles_planes_4.png	U	0	0	0	175.790109399939	175.990106299985
38517.5	100	36	1	1	4	0	8	1	0	0	0	stim009_stimuli_original_vehicles_boats_1.png	B	0	0	0	180.406863499898	180.606875299942
38617.5	100	37	1	1	4	1	7	10	0	0	0	stim008_stimuli_original_animals_fish_4.png	Q	0	0	0	180.806894399924	181.006884999806
38717.5	100	38	1	1	4	2	14	13	0	0	0	stim015_stimuli_original_vehicles_planes_3.png	U	0	0	0	181.20689609996	181.40689480002
38817.5	100	39	1	1	4	3	12	5	0	0	0	stim013_stimuli_original_vehicles_planes_1.png	F	0	0	0	181.606907199835	181.806911199819
38917.5	100	40	1	1	4	4	3	0	0	0	0	stim004_stimuli_original_animals_birds_4.png	A	0	0	0	182.006916599814	182.206915499875
39017.5	100	41	1	1	4	5	0	12	0	0	0	stim001_stimuli_original_animals_birds_1.png	T	0	0	0	182.406928699929	182.606928899884
39117.5	100	42	1	1	4	6	7	8	1	0	0	stim008_stimuli_original_animals_fish_4.png	K	0	0	0	182.806960399961	183.006936999969
39217.5	100	43	1	1	4	7	13	6	0	0	0	stim014_stimuli_original_vehicles_planes_2.png	G	0	0	0	183.206962700002	183.406952799996
39317.5	100	44	1	1	4	8	7	9	1	0	0	stim008_stimuli_original_animals_fish_4.png	L	0	0	0	183.606959299883	183.806960399961
39417.5	100	45	1	1	4	9	2	11	0	0	0	stim003_stimuli_original_animals_birds_3.png	R	0	0	0	184.006970999995	184.206972299842
39517.5	100	46	1	1	4	10	9	4	0	0	0	stim010_stimuli_original_vehicles_boats_2.png	E	0	0	0	184.40698119998	184.606979799923
39617.5	100	47	1	1	4	11	1	10	0	1	0	stim002_stimuli_original_animals_birds_2.png	Q	0	0	0	184.806991499849	185.006992299808
39717.5	100	48	1	1	4	12	5	7	0	0	0	stim006_stimuli_original_animals_fish_2.png	J	0	0	0	185.207001599949	185.407007899834
39817.5	100	49	1	1	4	13	15	10	0	1	1	stim016_stimuli_original_vehicles_planes_4.png	Q	0	0	0	185.607028999832	185.807013599901
39917.5	100	50	1	1	4	14	6	14	0	0	0	stim007_stimuli_original_animals_fish_3.png	V	d	185.999706699979	1	186.00702309981	186.207022899995
40017.5	100	51	1	1	4	15	4	15	0	0	0	stim005_stimuli_original_animals_fish_1.png	Y	0	0	0	186.407032900024	186.607022400014
40117.5	100	52	1	1	4	16	11	3	0	0	0	stim012_stimuli_original_vehicles_boats_4.png	D	0	0	0	186.807033399818	187.007030999986
40217.5	100	53	1	1	4	17	10	2	0	0	0	stim011_stimuli_original_vehicles_boats_3.png	C	0	0	0	187.207044299925	187.407041999977
40317.5	100	54	1	1	4	18	2	10	0	0	0	stim003_stimuli_original_animals_birds_3.png	Q	0	0	0	187.607054200023	187.807074799901
40417.5	100	55	1	1	4	19	3	11	0	0	0	stim004_stimuli_original_animals_birds_4.png	R	0	0	0	188.007072699955	188.207066399977
40517.5	100	56	1	1	4	20	15	4	0	0	0	stim016_stimuli_original_vehicles_planes_4.png	E	0	0	0	188.407075299881	188.607074999949
40617.5	100	57	1	1	4	21	14	6	0	0	0	stim015_stimuli_original_vehicles_planes_3.png	G	0	0	0	188.807102899998	189.007085099816
40717.5	100	58	1	1	4	22	10	15	1	0	0	stim011_stimuli_original_vehicles_boats_3.png	Y	0	0	0	189.207096199971	189.407096299808
40817.5	100	59	1	1	4	23	7	5	0	0	0	stim008_stimuli_original_animals_fish_4.png	F	0	0	0	189.607108899858	189.807127499953
40917.5	100	60	1	1	4	24	10	1	1	0	0	stim011_stimuli_original_vehicles_boats_3.png	B	0	0	0	190.007117799949	190.2071459
41017.5	100	61	1	1	4	25	4	9	0	0	0	stim005_stimuli_original_animals_fish_1.png	L	0	0	0	190.407128999941	190.607128700009
41117.5	100	62	1	1	4	26	11	2	0	0	0	stim012_stimuli_original_vehicles_boats_4.png	C	0	0	0	190.807139499811	191.007140300004
41217.5	100	63	1	1	4	27	9	7	0	1	0	stim010_stimuli_original_vehicles_boats_2.png	J	0	0	0	191.207151199924	191.407150099985
41317.5	100	64	1	1	4	28	6	13	0	0	0	stim007_stimuli_original_animals_fish_3.png	U	0	0	0	191.607160300016	191.807161399862
41417.5	100	65	1	1	4	29	8	7	0	1	1	stim009_stimuli_original_vehicles_boats_1.png	J	0	0	0	192.007172700018	192.207170699956
41517.5	100	66	1	1	4	30	12	0	0	0	0	stim013_stimuli_original_vehicles_planes_1.png	A	0	0	0	192.407182499999	192.607181999832
41617.5	100	67	1	1	4	31	0	3	0	0	0	stim001_stimuli_original_animals_birds_1.png	D	d	192.8158983998	1	192.807204099838	193.007192499936
41717.5	100	68	1	1	4	32	5	12	0	0	0	stim006_stimuli_original_animals_fish_2.png	T	0	0	0	193.207205299987	193.407200800022
41817.5	100	69	1	1	4	33	13	14	0	0	0	stim014_stimuli_original_vehicles_planes_2.png	V	0	0	0	193.60721359984	193.807212200016
41917.5	100	70	1	1	4	34	10	7	0	0	0	stim011_stimuli_original_vehicles_boats_3.png	J	0	0	0	194.007224099943	194.207245599944
42017.5	100	71	1	1	4	35	1	8	0	0	0	stim002_stimuli_original_animals_birds_2.png	K	0	0	0	194.407234399812	194.607235000003
45471.75	100	72	2	0	2	0	15	13	0	0	0	stim016_stimuli_original_vehicles_planes_4.png	U	0	0	0	208.224272100022	208.424282499822
45571.75	100	73	2	0	2	1	14	9	0	0	0	stim015_stimuli_original_vehicles_planes_3.png	L	0	0	0	208.624327400001	208.82430420001
45671.75	100	74	2	0	2	2	4	15	0	0	0	stim005_stimuli_original_animals_fish_1.png	Y	0	0	0	209.024294100003	209.22429189994
45771.75	100	75	2	0	2	3	8	4	0	0	0	stim009_stimuli_original_vehicles_boats_1.png	E	0	0	0	209.424302599858	209.624303799821
45871.75	100	76	2	0	2	4	0	7	0	0	0	stim001_stimuli_original_animals_birds_1.png	J	0	0	0	209.824317799881	210.024337099865
45971.75	100	77	2	0	2	5	2	10	0	0	0	stim003_stimuli_original_animals_birds_3.png	Q	0	0	0	210.22432599985	210.424340999918
46071.75	100	78	2	0	2	6	7	6	1	0	0	stim008_stimuli_original_animals_fish_4.png	G	0	0	0	210.624359400012	210.824339799816
46171.75	100	79	2	0	2	7	11	11	0	0	0	stim012_stimuli_original_vehicles_boats_4.png	R	0	0	0	211.024346699938	211.224346099887
46271.75	100	80	2	0	2	8	7	14	1	0	1	stim008_stimuli_original_animals_fish_4.png	V	0	0	0	211.424357999815	211.624377199914
46371.75	100	81	2	0	2	9	12	5	0	1	0	stim013_stimuli_original_vehicles_planes_1.png	F	0	0	0	211.824370799819	212.024370299885
46471.75	100	82	2	0	2	10	9	1	0	0	0	stim010_stimuli_original_vehicles_boats_2.png	B	0	0	0	212.224393199896	212.424393399851
46571.75	100	83	2	0	2	11	5	5	0	1	0	stim006_stimuli_original_animals_fish_2.png	F	0	0	0	212.624401699984	212.824392199982
46671.75	100	84	2	0	2	12	10	8	0	0	0	stim011_stimuli_original_vehicles_boats_3.png	K	0	0	0	213.024401200004	213.224410499912
46771.75	100	85	2	0	2	13	3	3	0	0	0	stim004_stimuli_original_animals_birds_4.png	D	0	0	0	213.424422999844	213.6244233998
46871.75	100	86	2	0	2	14	6	0	0	0	0	stim007_stimuli_original_animals_fish_3.png	A	0	0	0	213.824436099967	214.024421599926
46971.75	100	87	2	0	2	15	13	12	0	0	0	stim014_stimuli_original_vehicles_planes_2.png	T	0	0	0	214.224432699848	214.424432299798
47071.75	100	88	2	0	2	16	1	2	0	0	0	stim002_stimuli_original_animals_birds_2.png	C	0	0	0	214.624443499837	214.824445099803
47171.75	100	89	2	0	2	17	7	5	0	0	0	stim008_stimuli_original_animals_fish_4.png	F	0	0	0	215.024473599857	215.224453999894
47271.75	100	90	2	0	2	18	5	7	0	0	0	stim006_stimuli_original_animals_fish_2.png	J	0	0	0	215.424462399911	215.624462399865
47371.75	100	91	2	0	2	19	2	1	0	0	0	stim003_stimuli_original_animals_birds_3.png	B	0	0	0	215.824477599934	216.024474999867
47471.75	100	92	2	0	2	20	12	13	0	0	0	stim013_stimuli_original_vehicles_planes_1.png	U	0	0	0	216.2244853999	216.42448359984
47571.75	100	93	2	0	2	21	0	6	0	0	0	stim001_stimuli_original_animals_birds_1.png	G	0	0	0	216.624526599888	216.824497299967
47671.75	100	94	2	0	2	22	3	3	0	0	0	stim004_stimuli_original_animals_birds_4.png	D	0	0	0	217.024505299982	217.224507699953
47771.75	100	95	2	0	2	23	8	10	0	0	0	stim009_stimuli_original_vehicles_boats_1.png	Q	0	0	0	217.424516599858	217.624515099917
47871.75	100	96	2	0	2	24	5	5	1	0	0	stim006_stimuli_original_animals_fish_2.png	F	0	0	0	217.824527399847	218.024526599795
47971.75	100	97	2	0	2	25	1	9	0	0	0	stim002_stimuli_original_animals_birds_2.png	L	0	0	0	218.224537799833	218.424541199813
48071.75	100	98	2	0	2	26	5	12	1	0	1	stim006_stimuli_original_animals_fish_2.png	T	0	0	0	218.624568699859	218.824570999946
48171.75	100	99	2	0	2	27	14	7	0	1	0	stim015_stimuli_original_vehicles_planes_3.png	J	d	219.216383799911	1	219.024563499959	219.224559299881
48271.75	100	100	2	0	2	28	11	11	0	0	0	stim012_stimuli_original_vehicles_boats_4.png	R	0	0	0	219.424570499919	219.62457009987
48372	100	101	2	0	2	29	6	7	0	1	0	stim007_stimuli_original_animals_fish_3.png	J	0	0	0	219.824580099899	220.024601199897
48472	100	102	2	0	2	30	10	2	0	0	0	stim011_stimuli_original_vehicles_boats_3.png	C	0	0	0	220.2245902	220.424588899827
48572	100	103	2	0	2	31	7	0	0	0	0	stim008_stimuli_original_animals_fish_4.png	A	0	0	0	220.624602499884	220.824600699823
48672	100	104	2	0	2	32	4	8	0	0	0	stim005_stimuli_original_animals_fish_1.png	K	0	0	0	221.024609999964	221.224613999948
48772	100	105	2	0	2	33	15	4	0	0	0	stim016_stimuli_original_vehicles_planes_4.png	E	0	0	0	221.42462299997	221.624623499811
48872	100	106	2	0	2	34	9	14	0	0	0	stim010_stimuli_original_vehicles_boats_2.png	V	0	0	0	221.824635699857	222.024634399917
48972	100	107	2	0	2	35	13	15	0	0	0	stim014_stimuli_original_vehicles_planes_2.png	Y	0	0	0	222.224644599948	222.424644500017
50713.5	100	108	3	1	13	0	7	1	0	0	0	stim008_stimuli_original_animals_fish_4.png	B	0	0	0	229.191510099918	229.391514600022
50813.5	100	109	3	1	13	1	10	6	0	0	0	stim011_stimuli_original_vehicles_boats_3.png	G	0	0	0	229.591522499919	229.791525800014
50913.5	100	110	3	1	13	2	14	13	0	0	0	stim015_stimuli_original_vehicles_planes_3.png	U	0	0	0	229.99152829987	230.191542199813
51013.5	100	111	3	1	13	3	11	9	0	0	0	stim012_stimuli_original_vehicles_boats_4.png	L	0	0	0	230.391539199976	230.591537999921
51113.5	100	112	3	1	13	4	2	12	0	0	0	stim003_stimuli_original_animals_birds_3.png	T	0	0	0	230.791549399961	230.991552899824
51213.5	100	113	3	1	13	5	15	3	1	0	0	stim016_stimuli_original_vehicles_planes_4.png	D	0	0	0	231.191559299827	231.391561199911
51313.5	100	114	3	1	13	6	13	11	0	0	0	stim014_stimuli_original_vehicles_planes_2.png	R	0	0	0	231.591570199933	231.791571399895
51413.5	100	115	3	1	13	7	15	8	1	0	0	stim016_stimuli_original_vehicles_planes_4.png	K	0	0	0	231.991584399948	232.191580599872
51513.75	100	116	3	1	13	8	4	2	0	1	0	stim005_stimuli_original_animals_fish_1.png	C	0	0	0	232.391643999843	232.591590399854
51613.5	100	117	3	1	13	9	0	5	0	0	0	stim001_stimuli_original_animals_birds_1.png	F	0	0	0	232.791609499836	232.991604999872
51713.75	100	118	3	1	13	10	12	2	0	1	1	stim013_stimuli_original_vehicles_planes_1.png	C	0	0	0	233.191617899807	233.391615299974
51813.75	100	119	3	1	13	11	15	10	0	0	0	stim016_stimuli_original_vehicles_planes_4.png	Q	d	233.783447199967	1	233.591623999877	233.791623399826
51913.75	100	120	3	1	13	12	8	7	0	0	0	stim009_stimuli_original_vehicles_boats_1.png	J	0	0	0	233.991637599887	234.191634299932
52013.75	100	121	3	1	13	13	6	4	0	0	0	stim007_stimuli_original_animals_fish_3.png	E	0	0	0	234.391647099983	234.591651899973
52113.75	100	122	3	1	13	14	5	0	0	0	0	stim006_stimuli_original_animals_fish_2.png	A	0	0	0	234.79165719985	234.991700700019
52213.75	100	123	3	1	13	15	9	2	0	0	0	stim010_stimuli_original_vehicles_boats_2.png	C	0	0	0	235.191667899955	235.391667999793
52313.75	100	124	3	1	13	16	1	14	0	0	0	stim002_stimuli_original_animals_birds_2.png	V	0	0	0	235.591677799821	235.791679899907
52413.75	100	125	3	1	13	17	3	15	0	0	0	stim004_stimuli_original_animals_birds_4.png	Y	0	0	0	235.991691299947	236.191686699865
52513.75	100	126	3	1	13	18	15	3	0	0	0	stim016_stimuli_original_vehicles_planes_4.png	D	0	0	0	236.391699399799	236.591697999975
52613.75	100	127	3	1	13	19	14	1	0	0	0	stim015_stimuli_original_vehicles_planes_3.png	B	0	0	0	236.791707199998	236.991711399984
52713.75	100	128	3	1	13	20	2	9	0	0	0	stim003_stimuli_original_animals_birds_3.png	L	0	0	0	237.191718899878	237.391722799977
52813.75	100	129	3	1	13	21	0	5	0	0	0	stim001_stimuli_original_animals_birds_1.png	F	0	0	0	237.591744999867	237.79173489986
52913.75	100	130	3	1	13	22	4	6	0	0	0	stim005_stimuli_original_animals_fish_1.png	G	0	0	0	237.991740799975	238.191740099806
53013.75	100	131	3	1	13	23	7	8	0	0	0	stim008_stimuli_original_animals_fish_4.png	K	0	0	0	238.391752499854	238.591752699809
53113.75	100	132	3	1	13	24	10	15	0	0	0	stim011_stimuli_original_vehicles_boats_3.png	Y	0	0	0	238.791774499929	238.991762899794
53213.75	100	133	3	1	13	25	2	12	1	0	0	stim003_stimuli_original_animals_birds_3.png	T	0	0	0	239.191771699814	239.3917737999
53313.75	100	134	3	1	13	26	5	0	0	0	0	stim006_stimuli_original_animals_fish_2.png	A	0	0	0	239.591784399934	239.791816700017
53413.75	100	135	3	1	13	27	2	4	1	0	0	stim003_stimuli_original_animals_birds_3.png	E	0	0	0	239.991795999929	240.191795499995
53513.75	100	136	3	1	13	28	8	15	0	1	0	stim009_stimuli_original_vehicles_boats_1.png	Y	0	0	0	240.391805899795	240.591805999866
53613.75	100	137	3	1	13	29	11	13	0	0	0	stim012_stimuli_original_vehicles_boats_4.png	U	0	0	0	240.791817300022	240.991818299983
53713.75	100	138	3	1	13	30	3	15	0	1	1	stim004_stimuli_original_animals_birds_4.png	Y	0	0	0	241.191826399881	241.391827199841
53813.75	100	139	3	1	13	31	12	2	0	0	0	stim013_stimuli_original_vehicles_planes_1.png	C	0	0	0	241.591838599881	241.791836999822
53913.75	100	140	3	1	13	32	9	11	0	0	0	stim010_stimuli_original_vehicles_boats_2.png	R	d	241.984612699831	1	241.991848099977	242.191852699965
54013.75	100	141	3	1	13	33	13	14	0	0	0	stim014_stimuli_original_vehicles_planes_2.png	V	0	0	0	242.391896799905	242.59185509989
54113.75	100	142	3	1	13	34	6	10	0	0	0	stim007_stimuli_original_animals_fish_3.png	Q	0	0	0	242.791866899934	242.991865499876
54213.75	100	143	3	1	13	35	1	7	0	0	0	stim002_stimuli_original_animals_birds_2.png	J	0	0	0	243.191877999809	243.391875599977
55568	100	144	4	0	11	0	14	1	0	0	0	stim015_stimuli_original_vehicles_planes_3.png	B	0	0	0	248.608700299868	248.808694399893
55668	100	145	4	0	11	1	7	14	0	0	0	stim008_stimuli_original_animals_fish_4.png	V	0	0	0	249.008696699981	249.208698199829
55768	100	146	4	0	11	2	8	6	0	0	0	stim009_stimuli_original_vehicles_boats_1.png	G	0	0	0	249.408712300006	249.608709499938
55868	100	147	4	0	11	3	13	8	0	0	0	stim014_stimuli_original_vehicles_planes_2.png	K	0	0	0	249.808718899963	250.008721999824
55968	100	148	4	0	11	4	3	10	0	0	0	stim004_stimuli_original_animals_birds_4.png	Q	0	0	0	250.208718999987	250.408719599945
56068	100	149	4	0	11	5	0	11	0	0	0	stim001_stimuli_original_animals_birds_1.png	R	0	0	0	250.608728199964	250.808729899814
56168	100	150	4	0	11	6	9	12	0	0	0	stim010_stimuli_original_vehicles_boats_2.png	T	0	0	0	251.00873979996	251.208739100024
56268	100	151	4	0	11	7	11	4	0	0	0	stim012_stimuli_original_vehicles_boats_4.png	E	0	0	0	251.408751899842	251.608750799904
56368	100	152	4	0	11	8	0	5	1	0	0	stim001_stimuli_original_animals_birds_1.png	F	0	0	0	251.808759599924	252.0087799998
56468	100	153	4	0	11	9	1	13	0	0	0	stim002_stimuli_original_animals_birds_2.png	U	0	0	0	252.208770799916	252.408773599891
56568	100	154	4	0	11	10	0	0	1	0	1	stim001_stimuli_original_animals_birds_1.png	A	0	0	0	252.608782599913	252.808792499825
56668	100	155	4	0	11	11	2	11	0	1	0	stim003_stimuli_original_animals_birds_3.png	R	d	253.200648099883	1	253.008814599831	253.208793499973
56768	100	156	4	0	11	12	15	2	0	0	0	stim016_stimuli_original_vehicles_planes_4.png	C	0	0	0	253.408822999801	253.608803799842
56868	100	157	4	0	11	13	6	11	0	1	0	stim007_stimuli_original_animals_fish_3.png	R	0	0	0	253.808813999873	254.008817099966
56968	100	158	4	0	11	14	10	3	0	0	0	stim011_stimuli_original_vehicles_boats_3.png	D	0	0	0	254.208826099988	254.408826999832
57068	100	159	4	0	11	15	12	15	0	0	0	stim013_stimuli_original_vehicles_planes_1.png	Y	0	0	0	254.608833999839	254.808835099917
57168	100	160	4	0	11	16	4	9	0	0	0	stim005_stimuli_original_animals_fish_1.png	L	0	0	0	255.008847699966	255.208846999798
57268	100	161	4	0	11	17	5	7	0	0	0	stim006_stimuli_original_animals_fish_2.png	J	0	0	0	255.40885909996	255.6088572999
57368	100	162	4	0	11	18	7	5	0	0	0	stim008_stimuli_original_animals_fish_4.png	F	0	0	0	255.808867099928	256.008866799995
57468	100	163	4	0	11	19	9	4	0	0	0	stim010_stimuli_original_vehicles_boats_2.png	E	0	0	0	256.208879499929	256.408875699854
57568	100	164	4	0	11	20	15	12	0	0	0	stim016_stimuli_original_vehicles_planes_4.png	T	0	0	0	256.608890099917	256.808888099855
57668	100	165	4	0	11	21	3	10	0	0	0	stim004_stimuli_original_animals_birds_4.png	Q	0	0	0	257.008903499926	257.20890019997
57768	100	166	4	0	11	22	11	6	1	0	0	stim012_stimuli_original_vehicles_boats_4.png	G	0	0	0	257.408909299877	257.608921499923
57868	100	167	4	0	11	23	2	15	0	0	0	stim003_stimuli_original_animals_birds_3.png	Y	0	0	0	257.80893249996	258.008936599828
57968	100	168	4	0	11	24	11	2	1	0	1	stim012_stimuli_original_vehicles_boats_4.png	C	0	0	0	258.208944599843	258.408942600014
58068	100	169	4	0	11	25	0	0	0	1	0	stim001_stimuli_original_animals_birds_1.png	A	0	0	0	258.60895779985	258.80895389989
58168	100	170	4	0	11	26	13	1	0	0	0	stim014_stimuli_original_vehicles_planes_2.png	B	0	0	0	259.008963999804	259.20897479984
58268	100	171	4	0	11	27	5	0	0	1	0	stim006_stimuli_original_animals_fish_2.png	A	0	0	0	259.408975299913	259.608974799979
58368	100	172	4	0	11	28	4	11	0	0	0	stim005_stimuli_original_animals_fish_1.png	R	0	0	0	259.808986699907	260.008989199996
58468	100	173	4	0	11	29	12	9	0	0	0	stim013_stimuli_original_vehicles_planes_1.png	L	0	0	0	260.208996099886	260.408998299856
58568	100	174	4	0	11	30	11	0	0	0	0	stim012_stimuli_original_vehicles_boats_4.png	A	0	0	0	260.609009099891	260.809014499886
58668	100	175	4	0	11	31	10	3	0	0	0	stim011_stimuli_original_vehicles_boats_3.png	D	0	0	0	261.009016099852	261.209017299814
58768	100	176	4	0	11	32	8	13	0	0	0	stim009_stimuli_original_vehicles_boats_1.png	U	0	0	0	261.409026799956	261.609027799917
58868	100	177	4	0	11	33	6	8	0	0	0	stim007_stimuli_original_animals_fish_3.png	K	0	0	0	261.809048199793	262.009051299887
58968	100	178	4	0	11	34	14	7	0	0	0	stim015_stimuli_original_vehicles_planes_3.png	J	0	0	0	262.209049499827	262.409048399888
59068	100	179	4	0	11	35	1	14	0	0	0	stim002_stimuli_original_animals_birds_2.png	V	0	0	0	262.609060299816	262.80905869999
60151.25	100	180	5	1	33	0	13	7	0	0	0	stim014_stimuli_original_vehicles_planes_2.png	J	0	0	0	266.942502599908	267.14249979984
60251.25	100	181	5	1	33	1	7	8	0	0	0	stim008_stimuli_original_animals_fish_4.png	K	0	0	0	267.342513199896	267.542513699969
60351.25	100	182	5	1	33	2	12	12	0	0	0	stim013_stimuli_original_vehicles_planes_1.png	T	0	0	0	267.742522899993	267.942545699887
60451.25	100	183	5	1	33	3	1	13	0	0	0	stim002_stimuli_original_animals_birds_2.png	U	0	0	0	268.142530899961	268.342541599879
60551.25	100	184	5	1	33	4	8	10	1	0	0	stim009_stimuli_original_vehicles_boats_1.png	Q	0	0	0	268.542564299889	268.742542699911
60651.25	100	185	5	1	33	5	11	1	0	1	0	stim012_stimuli_original_vehicles_boats_4.png	B	0	0	0	268.942556999857	269.142552299891
60751.25	100	186	5	1	33	6	8	3	1	0	0	stim009_stimuli_original_vehicles_boats_1.png	D	0	0	0	269.342562999809	269.542563199997
60851.25	100	187	5	1	33	7	4	1	0	1	1	stim005_stimuli_original_animals_fish_1.png	B	0	0	0	269.742576899938	269.942574599991
60951.25	100	188	5	1	33	8	6	2	0	0	0	stim007_stimuli_original_animals_fish_3.png	C	0	0	0	270.142586099915	270.342587799998
61051.25	100	189	5	1	33	9	5	15	0	0	0	stim006_stimuli_original_animals_fish_2.png	Y	0	0	0	270.542633099947	270.742597799981
61151.25	100	190	5	1	33	10	8	0	0	0	0	stim009_stimuli_original_vehicles_boats_1.png	A	0	0	0	270.942620699992	271.142607699847
61251.25	100	191	5	1	33	11	9	11	0	0	0	stim010_stimuli_original_vehicles_boats_2.png	R	0	0	0	271.342617099872	271.542643699795
61351.25	100	192	5	1	33	12	15	14	0	0	0	stim016_stimuli_original_vehicles_planes_4.png	V	0	0	0	271.742632000009	271.942628499819
61451.25	100	193	5	1	33	13	14	5	0	0	0	stim015_stimuli_original_vehicles_planes_3.png	F	0	0	0	272.142638599966	272.342652299907
61551.25	100	194	5	1	33	14	10	1	0	0	0	stim011_stimuli_original_vehicles_boats_3.png	B	0	0	0	272.542661099927	272.742671099957
61651.25	100	195	5	1	33	15	3	4	0	0	0	stim004_stimuli_original_animals_birds_4.png	E	0	0	0	272.942671599798	273.142698199954
61751.25	100	196	5	1	33	16	2	9	0	0	0	stim003_stimuli_original_animals_birds_3.png	L	0	0	0	273.342681800015	273.542685599998
61851.25	100	197	5	1	33	17	0	6	0	0	0	stim001_stimuli_original_animals_birds_1.png	G	0	0	0	273.742680999916	273.942682199879
61951.25	100	198	5	1	33	18	6	0	0	0	0	stim007_stimuli_original_animals_fish_3.png	A	0	0	0	274.14269499993	274.342692699982
62051.25	100	199	5	1	33	19	9	2	0	0	0	stim010_stimuli_original_vehicles_boats_2.png	C	0	0	0	274.542703199899	274.742702199845
62151.25	100	200	5	1	33	20	4	3	0	0	0	stim005_stimuli_original_animals_fish_1.png	D	0	0	0	274.942714300007	275.142713199835
62251.5	100	201	5	1	33	21	1	10	0	0	0	stim002_stimuli_original_animals_birds_2.png	Q	0	0	0	275.342751199845	275.542724399827
62351.5	100	202	5	1	33	22	5	14	0	0	0	stim006_stimuli_original_animals_fish_2.png	V	0	0	0	275.742748499848	275.942756399978
62451.5	100	203	5	1	33	23	14	15	0	0	0	stim015_stimuli_original_vehicles_planes_3.png	Y	0	0	0	276.142757299822	276.342759999912
62551.5	100	204	5	1	33	24	11	9	0	0	0	stim012_stimuli_original_vehicles_boats_4.png	L	0	0	0	276.542767899809	276.742767499993
62651.5	100	205	5	1	33	25	0	8	0	0	0	stim001_stimuli_original_animals_birds_1.png	K	0	0	0	276.942778799916	277.14277809998
62751.5	100	206	5	1	33	26	15	5	0	0	0	stim016_stimuli_original_vehicles_planes_4.png	F	0	0	0	277.342789300019	277.542789399857
62851.5	100	207	5	1	33	27	2	6	0	0	0	stim003_stimuli_original_animals_birds_3.png	G	0	0	0	277.742779499851	277.942803699989
62951.5	100	208	5	1	33	28	1	4	1	0	0	stim002_stimuli_original_animals_birds_2.png	E	0	0	0	278.142818099819	278.342822099803
63051.5	100	209	5	1	33	29	3	8	0	1	0	stim004_stimuli_original_animals_birds_4.png	K	0	0	0	278.542824500008	278.742822999833
63151.5	100	210	5	1	33	30	1	11	1	0	0	stim002_stimuli_original_animals_birds_2.png	R	0	0	0	278.942836500006	279.142837299965
63251.5	100	211	5	1	33	31	10	8	0	1	1	stim011_stimuli_original_vehicles_boats_3.png	K	0	0	0	279.342847999884	279.542845299933
63351.5	100	212	5	1	33	32	13	1	0	0	0	stim014_stimuli_original_vehicles_planes_2.png	B	0	0	0	279.742861599894	279.942855199799
63451.5	100	213	5	1	33	33	12	12	0	0	0	stim013_stimuli_original_vehicles_planes_1.png	T	0	0	0	280.142869399861	280.342870999826
63551.5	100	214	5	1	33	34	8	7	0	0	0	stim009_stimuli_original_vehicles_boats_1.png	J	0	0	0	280.54288159986	280.742874499876
63651.5	100	215	5	1	33	35	7	13	0	0	0	stim008_stimuli_original_animals_fish_4.png	U	0	0	0	280.942885799799	281.142883899854
67618.25	100	216	6	0	10	0	14	15	0	0	0	stim015_stimuli_original_vehicles_planes_3.png	Y	0	0	0	296.809960599989	297.009966399986
67718.25	100	217	6	0	10	1	13	10	0	0	0	stim014_stimuli_original_vehicles_planes_2.png	Q	0	0	0	297.209969199961	297.409989699954
67818.25	100	218	6	0	10	2	0	8	0	0	0	stim001_stimuli_original_animals_birds_1.png	K	0	0	0	297.609988200013	297.809979399899
67918.25	100	219	6	0	10	3	4	1	0	0	0	stim005_stimuli_original_animals_fish_1.png	B	0	0	0	298.009992999956	298.210000599967
68018.25	100	220	6	0	10	4	11	7	0	0	0	stim012_stimuli_original_vehicles_boats_4.png	J	0	0	0	298.410013699904	298.610014399979
68118.25	100	221	6	0	10	5	9	13	0	0	0	stim010_stimuli_original_vehicles_boats_2.png	U	0	0	0	298.810023899889	299.010011599865
68218.25	100	222	6	0	10	6	15	0	0	0	0	stim016_stimuli_original_vehicles_planes_4.png	A	0	0	0	299.210062999977	299.410034599947
68318.25	100	223	6	0	10	7	10	14	1	0	0	stim011_stimuli_original_vehicles_boats_3.png	V	0	0	0	299.610044199973	299.810046099825
68418.25	100	224	6	0	10	8	8	6	0	0	0	stim009_stimuli_original_vehicles_boats_1.png	G	0	0	0	300.010045100003	300.210045099957
68518.25	100	225	6	0	10	9	10	5	1	0	1	stim011_stimuli_original_vehicles_boats_3.png	F	0	0	0	300.410055999877	300.61005599983
68618.25	100	226	6	0	10	10	1	3	0	0	0	stim002_stimuli_original_animals_birds_2.png	D	0	0	0	300.810066999868	301.010066799819
68718.25	100	227	6	0	10	11	12	14	0	1	0	stim013_stimuli_original_vehicles_planes_1.png	V	0	0	0	301.210075799841	301.410076199798
68818.25	100	228	6	0	10	12	2	12	0	0	0	stim003_stimuli_original_animals_birds_3.png	T	0	0	0	301.610087899957	301.81011359999
68918.25	100	229	6	0	10	13	3	14	0	1	0	stim004_stimuli_original_animals_birds_4.png	V	0	0	0	302.010101299966	302.210127699887
69018.25	100	230	6	0	10	14	10	9	0	0	0	stim011_stimuli_original_vehicles_boats_3.png	L	0	0	0	302.410119799897	302.610132999951
69118.25	100	231	6	0	10	15	6	11	0	0	0	stim007_stimuli_original_animals_fish_3.png	R	0	0	0	302.810129599879	303.010132699972
69218.25	100	232	6	0	10	16	5	4	0	0	0	stim006_stimuli_original_animals_fish_2.png	E	0	0	0	303.21013069991	303.410133600002
69318.25	100	233	6	0	10	17	7	2	0	0	0	stim008_stimuli_original_animals_fish_4.png	C	0	0	0	303.610142200021	303.81014109985
69418.25	100	234	6	0	10	18	2	7	0	0	0	stim003_stimuli_original_animals_birds_3.png	J	0	0	0	304.010175599949	304.210150599945
69518.25	100	235	6	0	10	19	4	5	0	0	0	stim005_stimuli_original_animals_fish_1.png	F	0	0	0	304.410189999966	304.61018479988
69618.25	100	236	6	0	10	20	11	6	0	0	0	stim012_stimuli_original_vehicles_boats_4.png	G	0	0	0	304.810172299854	305.01017299993
69718.25	100	237	6	0	10	21	9	10	0	0	0	stim010_stimuli_original_vehicles_boats_2.png	Q	0	0	0	305.210183399962	305.41018259991
69818.25	100	238	6	0	10	22	14	3	1	0	0	stim015_stimuli_original_vehicles_planes_3.png	D	0	0	0	305.61019399995	305.810194399906
69918.25	100	239	6	0	10	23	12	2	0	0	0	stim013_stimuli_original_vehicles_planes_1.png	C	0	0	0	306.010205599945	306.210203399882
70018.25	100	240	6	0	10	24	14	12	1	0	1	stim015_stimuli_original_vehicles_planes_3.png	T	0	0	0	306.410238399869	306.610260799993
70118.25	100	241	6	0	10	25	3	1	0	0	0	stim004_stimuli_original_animals_birds_4.png	B	s	307.002056599827	1	306.810224700021	307.010244499892
70218.25	100	242	6	0	10	26	5	10	0	1	0	stim006_stimuli_original_animals_fish_2.png	Q	0	0	0	307.210237199906	307.410237999866
70318.25	100	243	6	0	10	27	6	8	0	0	0	stim007_stimuli_original_animals_fish_3.png	K	0	0	0	307.610246999888	307.810246499954
70418.25	100	244	6	0	10	28	14	10	0	1	0	stim015_stimuli_original_vehicles_planes_3.png	Q	0	0	0	308.010256699985	308.210258699954
70518.25	100	245	6	0	10	29	0	15	0	0	0	stim001_stimuli_original_animals_birds_1.png	Y	0	0	0	308.410269699991	308.610291999998
70618.25	100	246	6	0	10	30	13	9	0	0	0	stim014_stimuli_original_vehicles_planes_2.png	L	0	0	0	308.810278299963	309.010279499926
70718.25	100	247	6	0	10	31	7	11	0	0	0	stim008_stimuli_original_animals_fish_4.png	R	0	0	0	309.210311200004	309.410290799802
70818.25	100	248	6	0	10	32	1	4	0	0	0	stim002_stimuli_original_animals_birds_2.png	E	0	0	0	309.610300499946	309.81030189991
70918.25	100	249	6	0	10	33	8	0	0	0	0	stim009_stimuli_original_vehicles_boats_1.png	A	0	0	0	310.010312599828	310.210310399998
71018.25	100	250	6	0	10	34	10	13	0	0	0	stim011_stimuli_original_vehicles_boats_3.png	U	0	0	0	310.410322299926	310.610321399989
71118.25	100	251	6	0	10	35	15	14	0	0	0	stim016_stimuli_original_vehicles_planes_4.png	V	0	0	0	310.810332599794	311.010332899867
72155.75	100	252	7	1	16	0	14	5	0	0	0	stim015_stimuli_original_vehicles_planes_3.png	F	0	0	0	314.960470799822	315.160467999987
72255.75	100	253	7	1	16	1	11	1	0	0	0	stim012_stimuli_original_vehicles_boats_4.png	B	0	0	0	315.360478899907	315.560487199808
72355.75	100	254	7	1	16	2	3	11	0	0	0	stim004_stimuli_original_animals_birds_4.png	R	0	0	0	315.760489099892	315.960502699949
72455.75	100	255	7	1	16	3	7	4	0	0	0	stim008_stimuli_original_animals_fish_4.png	E	0	0	0	316.160501299892	316.360483699944
72555.75	100	256	7	1	16	4	1	15	0	0	0	stim002_stimuli_original_animals_birds_2.png	Y	0	0	0	316.560513899894	316.76051149983
72655.75	100	257	7	1	16	5	3	6	1	0	0	stim004_stimuli_original_animals_birds_4.png	G	0	0	0	316.960522299865	317.160522599937
72755.75	100	258	7	1	16	6	10	2	0	0	0	stim011_stimuli_original_vehicles_boats_3.png	C	0	0	0	317.360531799961	317.560534599936
72855.75	100	259	7	1	16	7	3	14	1	0	0	stim004_stimuli_original_animals_birds_4.png	V	0	0	0	317.760541699827	317.960543799913
72955.75	100	260	7	1	16	8	8	0	0	1	0	stim009_stimuli_original_vehicles_boats_1.png	A	0	0	0	318.160554899834	318.360553100007
73055.75	100	261	7	1	16	9	12	10	0	0	0	stim013_stimuli_original_vehicles_planes_1.png	Q	0	0	0	318.560552299954	318.760563699994
73155.75	100	262	7	1	16	10	13	0	0	1	1	stim014_stimuli_original_vehicles_planes_2.png	A	0	0	0	318.96058669989	319.160577599891
73255.75	100	263	7	1	16	11	6	8	0	0	0	stim007_stimuli_original_animals_fish_3.png	K	s	319.552404899849	1	319.360585999908	319.560582899954
73355.75	100	264	7	1	16	12	4	7	0	0	0	stim005_stimuli_original_animals_fish_1.png	J	0	0	0	319.760598699795	319.960600399878
73455.75	100	265	7	1	16	13	9	0	0	0	0	stim010_stimuli_original_vehicles_boats_2.png	A	0	0	0	320.160608199891	320.360608199844
73555.75	100	266	7	1	16	14	5	3	0	0	0	stim006_stimuli_original_animals_fish_2.png	D	0	0	0	320.560616999865	320.760618699947
73655.75	100	267	7	1	16	15	2	12	0	0	0	stim003_stimuli_original_animals_birds_3.png	T	0	0	0	320.960627499968	321.160628999816
73755.75	100	268	7	1	16	16	0	9	0	0	0	stim001_stimuli_original_animals_birds_1.png	L	0	0	0	321.360641399864	321.560637800023
73855.75	100	269	7	1	16	17	15	13	0	0	0	stim016_stimuli_original_vehicles_planes_4.png	U	0	0	0	321.760648499941	321.960654499941
73955.75	100	270	7	1	16	18	13	15	0	0	0	stim014_stimuli_original_vehicles_planes_2.png	Y	0	0	0	322.160662699956	322.360653099837
74055.75	100	271	7	1	16	19	9	0	0	0	0	stim010_stimuli_original_vehicles_boats_2.png	A	0	0	0	322.560664799996	322.760666399961
74155.75	100	272	7	1	16	20	12	2	0	0	0	stim013_stimuli_original_vehicles_planes_1.png	C	0	0	0	322.960673299851	323.160672299797
74255.75	100	273	7	1	16	21	3	5	0	0	0	stim004_stimuli_original_animals_birds_4.png	F	0	0	0	323.360688199988	323.560684999917
74355.75	100	274	7	1	16	22	0	9	0	0	0	stim001_stimuli_original_animals_birds_1.png	L	0	0	0	323.760695199948	323.960694300011
74455.75	100	275	7	1	16	23	7	4	0	0	0	stim008_stimuli_original_animals_fish_4.png	E	0	0	0	324.160707199946	324.360718399985
74555.75	100	276	7	1	16	24	8	6	0	0	0	stim009_stimuli_original_vehicles_boats_1.png	G	0	0	0	324.560721299844	324.760717700003
74655.75	100	277	7	1	16	25	0	13	1	0	0	stim001_stimuli_original_animals_birds_1.png	U	0	0	0	324.960730399936	325.160726399859
74755.75	100	278	7	1	16	26	10	12	0	0	0	stim011_stimuli_original_vehicles_boats_3.png	T	0	0	0	325.360738999909	325.560737099964
74855.75	100	279	7	1	16	27	0	8	1	0	0	stim001_stimuli_original_animals_birds_1.png	K	0	0	0	325.760751299793	325.960751299979
74955.75	100	280	7	1	16	28	14	3	0	1	0	stim015_stimuli_original_vehicles_planes_3.png	D	0	0	0	326.160761999898	326.360780299874
75055.75	100	281	7	1	16	29	2	10	0	0	0	stim003_stimuli_original_animals_birds_3.png	Q	0	0	0	326.560774399899	326.76077139983
75155.75	100	282	7	1	16	30	6	3	0	1	1	stim007_stimuli_original_animals_fish_3.png	D	0	0	0	326.960781699978	327.16078099981
75255.75	100	283	7	1	16	31	15	1	0	0	0	stim016_stimuli_original_vehicles_planes_4.png	B	s	327.353450899944	1	327.360790499952	327.56079249992
75355.75	100	284	7	1	16	32	4	7	0	0	0	stim005_stimuli_original_animals_fish_1.png	J	0	0	0	327.760803299956	327.960804099916
75455.75	100	285	7	1	16	33	11	3	0	0	0	stim012_stimuli_original_vehicles_boats_4.png	D	0	0	0	328.160813599825	328.360811899882
75555.75	100	286	7	1	16	34	1	11	0	0	0	stim002_stimuli_original_animals_birds_2.png	R	0	0	0	328.560820200015	328.760822299868
75655.75	100	287	7	1	16	35	5	14	0	0	0	stim006_stimuli_original_animals_fish_2.png	V	0	0	0	328.960844799876	329.16083609988
79214.25	100	288	8	0	17	0	12	4	0	0	0	stim013_stimuli_original_vehicles_planes_1.png	E	0	0	0	343.194533299888	343.394531699829
79314.25	100	289	8	0	17	1	7	9	0	0	0	stim008_stimuli_original_animals_fish_4.png	L	0	0	0	343.594540399965	343.794541299809
79414.25	100	290	8	0	17	2	4	3	0	0	0	stim005_stimuli_original_animals_fish_1.png	D	0	0	0	343.994552499847	344.194550500019
79514.25	100	291	8	0	17	3	3	7	0	0	0	stim004_stimuli_original_animals_birds_4.png	J	0	0	0	344.394564399961	344.594563399907
79614.25	100	292	8	0	17	4	11	1	0	0	0	stim012_stimuli_original_vehicles_boats_4.png	B	0	0	0	344.79457119992	344.994574799901
79714.25	100	293	8	0	17	5	13	5	0	0	0	stim014_stimuli_original_vehicles_planes_2.png	F	0	0	0	345.194585799938	345.394583899993
79814.25	100	294	8	0	17	6	4	10	1	0	0	stim005_stimuli_original_animals_fish_1.png	Q	0	0	0	345.59459439991	345.794593499973
79914.25	100	295	8	0	17	7	10	2	0	1	0	stim011_stimuli_original_vehicles_boats_3.png	C	0	0	0	345.994606299791	346.194604599848
80014.25	100	296	8	0	17	8	4	12	1	0	1	stim005_stimuli_original_animals_fish_1.png	T	s	346.586448699934	1	346.39462889987	346.594615199836
80114.25	100	297	8	0	17	9	0	2	0	1	0	stim001_stimuli_original_animals_birds_1.png	C	0	0	0	346.79462489998	346.994627399836
80214.25	100	298	8	0	17	10	2	14	0	0	0	stim003_stimuli_original_animals_birds_3.png	V	0	0	0	347.19463849999	347.39463809994
80314.25	100	299	8	0	17	11	5	6	0	0	0	stim006_stimuli_original_animals_fish_2.png	G	0	0	0	347.594649899984	347.7946471998
80414.25	100	300	8	0	17	12	15	2	0	0	0	stim016_stimuli_original_vehicles_planes_4.png	C	0	0	0	347.994659299962	348.194658000022
80514.25	100	301	8	0	17	13	8	15	0	0	0	stim009_stimuli_original_vehicles_boats_1.png	Y	0	0	0	348.394669599831	348.594669400016
80614.25	100	302	8	0	17	14	1	13	0	0	0	stim002_stimuli_original_animals_birds_2.png	U	0	0	0	348.794680699939	348.994681600016
80714.25	100	303	8	0	17	15	9	0	0	0	0	stim010_stimuli_original_vehicles_boats_2.png	A	0	0	0	349.194713999983	349.394689999986
80814.25	100	304	8	0	17	16	14	11	0	0	0	stim015_stimuli_original_vehicles_planes_3.png	R	0	0	0	349.594700899906	349.794710399816
80914.25	100	305	8	0	17	17	6	8	0	0	0	stim007_stimuli_original_animals_fish_3.png	K	0	0	0	349.994723399868	350.194723299937
81014.25	100	306	8	0	17	18	8	6	0	0	0	stim009_stimuli_original_vehicles_boats_1.png	G	0	0	0	350.394723899895	350.59472409985
81114.25	100	307	8	0	17	19	11	14	0	0	0	stim012_stimuli_original_vehicles_boats_4.png	V	0	0	0	350.794736299897	350.994734099833
81214.25	100	308	8	0	17	20	0	9	0	0	0	stim001_stimuli_original_animals_birds_1.png	L	0	0	0	351.194766299799	351.394742799923
81314.25	100	309	8	0	17	21	13	1	0	0	0	stim014_stimuli_original_vehicles_planes_2.png	B	0	0	0	351.594770899974	351.79475339991
81414.25	100	310	8	0	17	22	15	8	0	0	0	stim016_stimuli_original_vehicles_planes_4.png	K	0	0	0	351.994767099852	352.194765100023
81514.25	100	311	8	0	17	23	2	15	0	0	0	stim003_stimuli_original_animals_birds_3.png	Y	0	0	0	352.394773999928	352.594776199898
81614.25	100	312	8	0	17	24	6	5	0	0	0	stim007_stimuli_original_animals_fish_3.png	F	0	0	0	352.794785999926	352.994789100019
81714.25	100	313	8	0	17	25	14	2	0	0	0	stim015_stimuli_original_vehicles_planes_3.png	C	0	0	0	353.194818499964	353.394797299989
81814.25	100	314	8	0	17	26	2	0	1	0	0	stim003_stimuli_original_animals_birds_3.png	A	0	0	0	353.594808599912	353.794807599857
81914.25	100	315	8	0	17	27	12	4	0	1	0	stim013_stimuli_original_vehicles_planes_1.png	E	s	353.987484599929	0	353.994816699997	354.194819099968
82014.25	100	316	8	0	17	28	2	10	1	0	1	stim003_stimuli_original_animals_birds_3.png	Q	0	0	0	354.394829700002	354.594830799848
82114.25	100	317	8	0	17	29	10	4	0	1	0	stim011_stimuli_original_vehicles_boats_3.png	E	0	0	0	354.794837399852	354.994839599822
82214.25	100	318	8	0	17	30	5	13	0	0	0	stim006_stimuli_original_animals_fish_2.png	U	0	0	0	355.194851299981	355.39486130001
82314.25	100	319	8	0	17	31	1	11	0	0	0	stim002_stimuli_original_animals_birds_2.png	R	0	0	0	355.594873099821	355.794871699996
82414.25	100	320	8	0	17	32	7	3	0	0	0	stim008_stimuli_original_animals_fish_4.png	D	0	0	0	355.9948956999	356.194884199882
82514.25	100	321	8	0	17	33	3	4	0	0	0	stim004_stimuli_original_animals_birds_4.png	E	0	0	0	356.394901499851	356.594895699993
82614.25	100	322	8	0	17	34	9	7	0	0	0	stim010_stimuli_original_vehicles_boats_2.png	J	0	0	0	356.794904999901	356.994905299973
82714.25	100	323	8	0	17	35	4	12	0	0	0	stim005_stimuli_original_animals_fish_1.png	T	0	0	0	357.19491579989	357.394918099977
84302	100	324	9	1	35	0	12	15	0	0	0	stim013_stimuli_original_vehicles_planes_1.png	Y	0	0	0	363.545075899921	363.745072199963
84402	100	325	9	1	35	1	2	2	0	0	0	stim003_stimuli_original_animals_birds_3.png	C	0	0	0	363.945083899889	364.145083299838
84502	100	326	9	1	35	2	8	1	0	0	0	stim009_stimuli_original_vehicles_boats_1.png	B	0	0	0	364.345093099866	364.545119199902
84602	100	327	9	1	35	3	0	11	0	0	0	stim001_stimuli_original_animals_birds_1.png	R	0	0	0	364.745118799852	364.945127299987
84702	100	328	9	1	35	4	5	9	0	0	0	stim006_stimuli_original_animals_fish_2.png	L	0	0	0	365.145115399966	365.345113999909
84802	100	329	9	1	35	5	7	0	0	0	0	stim008_stimuli_original_animals_fish_4.png	A	0	0	0	365.545126299839	365.745125399902
84902	100	330	9	1	35	6	3	13	0	0	0	stim004_stimuli_original_animals_birds_4.png	U	0	0	0	365.945136599941	366.145137999905
85002	100	331	9	1	35	7	4	3	0	1	0	stim005_stimuli_original_animals_fish_1.png	D	0	0	0	366.345146399923	366.545148500009
85102	100	332	9	1	35	8	1	6	0	0	0	stim002_stimuli_original_animals_birds_2.png	G	0	0	0	366.745157999918	366.945158499992
85202	100	333	9	1	35	9	10	3	0	1	1	stim011_stimuli_original_vehicles_boats_3.png	D	0	0	0	367.145168100018	367.34519189992
85302	100	334	9	1	35	10	4	12	1	0	0	stim005_stimuli_original_animals_fish_1.png	T	0	0	0	367.545178399887	367.745179299964
85402	100	335	9	1	35	11	13	14	0	0	0	stim014_stimuli_original_vehicles_planes_2.png	V	s	367.937832299853	1	367.945189699996	368.145213600015
85502	100	336	9	1	35	12	4	5	1	0	0	stim005_stimuli_original_animals_fish_1.png	F	0	0	0	368.345202199882	368.545199799817
85602	100	337	9	1	35	13	14	8	0	0	0	stim015_stimuli_original_vehicles_planes_3.png	K	0	0	0	368.74521159986	368.945234499872
85702	100	338	9	1	35	14	15	10	0	0	0	stim016_stimuli_original_vehicles_planes_4.png	Q	0	0	0	369.14522119984	369.345233999891
85802	100	339	9	1	35	15	9	7	0	0	0	stim010_stimuli_original_vehicles_boats_2.png	J	0	0	0	369.545231099939	369.745243799873
85902	100	340	9	1	35	16	6	4	0	0	0	stim007_stimuli_original_animals_fish_3.png	E	0	0	0	369.945246799849	370.145245200023
86002	100	341	9	1	35	17	11	3	0	0	0	stim012_stimuli_original_vehicles_boats_4.png	D	0	0	0	370.345255099935	370.54527579993
86102	100	342	9	1	35	18	3	11	0	0	0	stim004_stimuli_original_animals_birds_4.png	R	0	0	0	370.745264499914	370.945267699892
86202	100	343	9	1	35	19	4	6	0	0	0	stim005_stimuli_original_animals_fish_1.png	G	0	0	0	371.145275099901	371.345287899952
86302	100	344	9	1	35	20	7	9	0	0	0	stim008_stimuli_original_animals_fish_4.png	L	0	0	0	371.545295899967	371.745298999827
86402	100	345	9	1	35	21	10	15	0	0	0	stim011_stimuli_original_vehicles_boats_3.png	Y	s	371.937966399826	0	371.945294999983	372.145318099996
86502	100	346	9	1	35	22	8	14	0	0	0	stim009_stimuli_original_vehicles_boats_1.png	V	0	0	0	372.345331499819	372.545308199944
86602	100	347	9	1	35	23	5	4	0	1	0	stim006_stimuli_original_animals_fish_2.png	E	0	0	0	372.745333899977	372.945318399929
86702	100	348	9	1	35	24	14	13	0	0	0	stim015_stimuli_original_vehicles_planes_3.png	U	0	0	0	373.145352199906	373.345351899974
86802	100	349	9	1	35	25	12	4	0	1	1	stim013_stimuli_original_vehicles_planes_1.png	E	0	0	0	373.545340099838	373.745339300018
86902	100	350	9	1	35	26	3	10	1	0	0	stim004_stimuli_original_animals_birds_4.png	Q	0	0	0	373.945350199938	374.145350999897
87002	100	351	9	1	35	27	6	1	0	0	0	stim007_stimuli_original_animals_fish_3.png	B	0	0	0	374.345360799925	374.545384799829
87102	100	352	9	1	35	28	3	4	1	0	0	stim004_stimuli_original_animals_birds_4.png	E	0	0	0	374.745369500015	374.945390899898
87202	100	353	9	1	35	29	13	3	0	0	0	stim014_stimuli_original_vehicles_planes_2.png	D	0	0	0	375.145382700022	375.345380099956
87302	100	354	9	1	35	30	0	7	0	0	0	stim001_stimuli_original_animals_birds_1.png	J	0	0	0	375.545390799874	375.745393399848
87402	100	355	9	1	35	31	9	5	0	0	0	stim010_stimuli_original_vehicles_boats_2.png	F	0	0	0	375.945404300001	376.145403599832
87502	100	356	9	1	35	32	11	0	0	0	0	stim012_stimuli_original_vehicles_boats_4.png	A	0	0	0	376.345432400005	376.545411999803
87602	100	357	9	1	35	33	1	8	0	0	0	stim002_stimuli_original_animals_birds_2.png	K	0	0	0	376.745447199792	376.945425699931
87702	100	358	9	1	35	34	2	2	0	0	0	stim003_stimuli_original_animals_birds_3.png	C	0	0	0	377.145435399842	377.345435799798
87802	100	359	9	1	35	35	15	12	0	0	0	stim016_stimuli_original_vehicles_planes_4.png	T	0	0	0	377.545448199846	377.745444099884
90210.25	100	360	10	0	36	0	4	12	0	0	0	stim005_stimuli_original_animals_fish_1.png	T	0	0	0	387.179038699949	387.379050599877
90310.5	100	361	10	0	36	1	11	8	0	0	0	stim012_stimuli_original_vehicles_boats_4.png	K	0	0	0	387.579058199888	387.779059499968
90410.5	100	362	10	0	36	2	3	13	0	0	0	stim004_stimuli_original_animals_birds_4.png	U	0	0	0	387.979071900016	388.179069799837
90510.5	100	363	10	0	36	3	10	6	0	0	0	stim011_stimuli_original_vehicles_boats_3.png	G	0	0	0	388.379079599865	388.579079499934
90610.5	100	364	10	0	36	4	15	0	0	0	0	stim016_stimuli_original_vehicles_planes_4.png	A	0	0	0	388.779090999858	388.979102500016
90710.5	100	365	10	0	36	5	2	10	0	0	0	stim003_stimuli_original_animals_birds_3.png	Q	0	0	0	389.179090799997	389.379112299997
90810.5	100	366	10	0	36	6	1	7	0	0	0	stim002_stimuli_original_animals_birds_2.png	J	0	0	0	389.579098399961	389.779102699831
90910.5	100	367	10	0	36	7	8	14	0	1	0	stim009_stimuli_original_vehicles_boats_1.png	V	0	0	0	389.97911439999	390.179111399921
91010.5	100	368	10	0	36	8	13	15	0	0	0	stim014_stimuli_original_vehicles_planes_2.png	Y	0	0	0	390.379121599952	390.579151599901
91110.5	100	369	10	0	36	9	2	14	1	1	0	stim003_stimuli_original_animals_birds_3.png	V	0	0	0	390.779143899912	390.979145899881
91210.5	100	370	10	0	36	10	5	1	0	0	0	stim006_stimuli_original_animals_fish_2.png	B	s	391.171840299852	0	391.179156799801	391.379143399885
91310.5	100	371	10	0	36	11	2	9	1	0	1	stim003_stimuli_original_animals_birds_3.png	L	0	0	0	391.579163399991	391.779153199866
91410.5	100	372	10	0	36	12	14	2	0	0	0	stim015_stimuli_original_vehicles_planes_3.png	C	0	0	0	391.979164199904	392.179185499903
91510.5	100	373	10	0	36	13	7	5	0	0	0	stim008_stimuli_original_animals_fish_4.png	F	0	0	0	392.379196799826	392.579186599934
91610.5	100	374	10	0	36	14	9	14	0	0	0	stim010_stimuli_original_vehicles_boats_2.png	V	0	0	0	392.779197799973	392.979199899826
91710.5	100	375	10	0	36	15	0	4	0	0	0	stim001_stimuli_original_animals_birds_1.png	E	0	0	0	393.179207299836	393.379206700018
91810.5	100	376	10	0	36	16	6	3	0	0	0	stim007_stimuli_original_animals_fish_3.png	D	0	0	0	393.579230799805	393.779248100007
91910.5	100	377	10	0	36	17	12	11	0	0	0	stim013_stimuli_original_vehicles_planes_1.png	R	0	0	0	393.979230299825	394.179243499879
92010.5	100	378	10	0	36	18	11	12	0	0	0	stim012_stimuli_original_vehicles_boats_4.png	T	0	0	0	394.379240199924	394.579240499996
92110.5	100	379	10	0	36	19	3	6	0	0	0	stim004_stimuli_original_animals_birds_4.png	G	0	0	0	394.779250100022	394.979250599863
92210.5	100	380	10	0	36	20	4	0	0	0	0	stim005_stimuli_original_animals_fish_1.png	A	0	0	0	395.179262500023	395.379259299953
92310.5	100	381	10	0	36	21	14	9	0	0	0	stim015_stimuli_original_vehicles_planes_3.png	L	0	0	0	395.579269999871	395.779271099949
92410.5	100	382	10	0	36	22	5	7	0	0	0	stim006_stimuli_original_animals_fish_2.png	J	0	0	0	395.979285300011	396.179295199923
92510.5	100	383	10	0	36	23	2	14	0	0	0	stim003_stimuli_original_animals_birds_3.png	V	0	0	0	396.379317399813	396.579293399816
92610.5	100	384	10	0	36	24	9	2	0	1	0	stim010_stimuli_original_vehicles_boats_2.png	C	0	0	0	396.779310100013	396.979305999819
92710.5	100	385	10	0	36	25	1	5	0	0	0	stim002_stimuli_original_animals_birds_2.png	F	0	0	0	397.179313299945	397.379313699901
92810.5	100	386	10	0	36	26	14	2	1	1	0	stim015_stimuli_original_vehicles_planes_3.png	C	0	0	0	397.579327299958	397.779324899893
92910.5	100	387	10	0	36	27	15	13	0	0	0	stim016_stimuli_original_vehicles_planes_4.png	U	0	0	0	397.979339599842	398.179324699799
93010.5	100	388	10	0	36	28	14	8	1	0	1	stim015_stimuli_original_vehicles_planes_3.png	K	0	0	0	398.379341599997	398.579334399896
93110.5	100	389	10	0	36	29	7	1	0	0	0	stim008_stimuli_original_animals_fish_4.png	B	0	0	0	398.779344899813	398.979332800023
93210.5	100	390	10	0	36	30	10	2	0	0	0	stim011_stimuli_original_vehicles_boats_3.png	C	s	399.172026399989	1	399.179356299806	399.379357500002
93310.5	100	391	10	0	36	31	0	15	0	0	0	stim001_stimuli_original_animals_birds_1.png	Y	0	0	0	399.579374499852	399.779374799924
93410.5	100	392	10	0	36	32	6	10	0	0	0	stim007_stimuli_original_animals_fish_3.png	Q	0	0	0	399.979380499804	400.179391999962
93510.5	100	393	10	0	36	33	13	3	0	0	0	stim014_stimuli_original_vehicles_planes_2.png	D	0	0	0	400.379399099853	400.579389199847
93610.5	100	394	10	0	36	34	8	11	0	0	0	stim009_stimuli_original_vehicles_boats_1.png	R	0	0	0	400.779398899991	400.97940179985
93710.5	100	395	10	0	36	35	12	4	0	0	0	stim013_stimuli_original_vehicles_planes_1.png	E	0	0	0	401.179437299957	401.379408499924
95423	100	396	11	1	1	0	8	8	0	0	0	stim009_stimuli_original_vehicles_boats_1.png	K	0	0	0	408.029606199823	408.22961889999
95523	100	397	11	1	1	1	11	2	0	0	0	stim012_stimuli_original_vehicles_boats_4.png	C	0	0	0	408.429623499978	408.629618000006
95623	100	398	11	1	1	2	5	9	0	0	0	stim006_stimuli_original_animals_fish_2.png	L	0	0	0	408.829626499908	409.029623899842
95723	100	399	11	1	1	3	15	0	0	0	0	stim016_stimuli_original_vehicles_planes_4.png	A	0	0	0	409.22964029992	409.429636499844
95823	100	400	11	1	1	4	6	11	0	0	0	stim007_stimuli_original_animals_fish_3.png	R	0	0	0	409.629646199988	409.829648499843
95923	100	401	11	1	1	5	14	5	0	0	0	stim015_stimuli_original_vehicles_planes_3.png	F	0	0	0	410.029658899875	410.229659499833
96023	100	402	11	1	1	6	2	4	0	1	0	stim003_stimuli_original_animals_birds_3.png	E	0	0	0	410.429695299827	410.62966570002
96123	100	403	11	1	1	7	7	6	0	0	0	stim008_stimuli_original_animals_fish_4.png	G	0	0	0	410.829679599963	411.029681899818
96223	100	404	11	1	1	8	3	4	0	1	1	stim004_stimuli_original_animals_birds_4.png	E	0	0	0	411.229690399952	411.429692999925
96323	100	405	11	1	1	9	0	15	0	0	0	stim001_stimuli_original_animals_birds_1.png	Y	s	411.832888999954	1	411.629700199934	411.829701500013
96423	100	406	11	1	1	10	11	10	1	0	0	stim012_stimuli_original_vehicles_boats_4.png	Q	0	0	0	412.02971149981	412.229709399864
96523	100	407	11	1	1	11	1	12	0	0	0	stim002_stimuli_original_animals_birds_2.png	T	0	0	0	412.429722199915	412.629721399862
96623	100	408	11	1	1	12	11	1	1	0	0	stim012_stimuli_original_vehicles_boats_4.png	B	0	0	0	412.829731700011	413.029736299999
96723	100	409	11	1	1	13	13	4	0	0	0	stim014_stimuli_original_vehicles_planes_2.png	E	0	0	0	413.229742700001	413.429745499976
96823	100	410	11	1	1	14	4	14	0	0	0	stim005_stimuli_original_animals_fish_1.png	V	0	0	0	413.629753199872	413.829754199833
96923	100	411	11	1	1	15	10	3	0	0	0	stim011_stimuli_original_vehicles_boats_3.png	D	0	0	0	414.029774599941	414.229779099813
97023	100	412	11	1	1	16	9	13	0	0	0	stim010_stimuli_original_vehicles_boats_2.png	U	0	0	0	414.429773499956	414.629772899905
97123	100	413	11	1	1	17	12	7	0	0	0	stim013_stimuli_original_vehicles_planes_1.png	J	0	0	0	414.82978699985	415.029786299914
97223	100	414	11	1	1	18	7	12	0	0	0	stim008_stimuli_original_animals_fish_4.png	T	0	0	0	415.229795799823	415.429798899917
97323	100	415	11	1	1	19	13	9	0	0	0	stim014_stimuli_original_vehicles_planes_2.png	L	0	0	0	415.629833099898	415.829808800016
97423	100	416	11	1	1	20	3	10	0	0	0	stim004_stimuli_original_animals_birds_4.png	Q	0	0	0	416.029816599796	416.229815599974
97523	100	417	11	1	1	21	14	4	0	0	0	stim015_stimuli_original_vehicles_planes_3.png	E	0	0	0	416.429829499917	416.629828499863
97623	100	418	11	1	1	22	4	13	0	0	0	stim005_stimuli_original_animals_fish_1.png	U	0	0	0	416.829841999803	417.02983769984
97723	100	419	11	1	1	23	1	11	0	1	0	stim002_stimuli_original_animals_birds_2.png	R	0	0	0	417.229849699885	417.429849999957
97823	100	420	11	1	1	24	12	1	0	0	0	stim013_stimuli_original_vehicles_planes_1.png	B	0	0	0	417.629860499874	417.829881499987
97923	100	421	11	1	1	25	10	11	0	1	1	stim011_stimuli_original_vehicles_boats_3.png	R	0	0	0	418.029870699858	418.229869399918
98023	100	422	11	1	1	26	15	0	0	0	0	stim016_stimuli_original_vehicles_planes_4.png	A	0	0	0	418.429882799974	418.629882899811
98123	100	423	11	1	1	27	4	3	1	0	0	stim005_stimuli_original_animals_fish_1.png	D	0	0	0	418.829893999966	419.029893299798
98223	100	424	11	1	1	28	6	7	0	0	0	stim007_stimuli_original_animals_fish_3.png	J	0	0	0	419.229902599938	419.429906099802
98323	100	425	11	1	1	29	4	2	1	0	0	stim005_stimuli_original_animals_fish_1.png	C	0	0	0	419.62991239992	419.829915399896
98423	100	426	11	1	1	30	5	14	0	0	0	stim006_stimuli_original_animals_fish_2.png	V	0	0	0	420.029925599927	420.229923699982
98523	100	427	11	1	1	31	11	6	0	0	0	stim012_stimuli_original_vehicles_boats_4.png	G	0	0	0	420.429962299997	420.629933599848
98623	100	428	11	1	1	32	0	15	0	0	0	stim001_stimuli_original_animals_birds_1.png	Y	0	0	0	420.829943999881	421.029945799848
98723	100	429	11	1	1	33	9	5	0	0	0	stim010_stimuli_original_vehicles_boats_2.png	F	0	0	0	421.229956700001	421.429956599837
98823	100	430	11	1	1	34	2	11	0	0	0	stim003_stimuli_original_animals_birds_3.png	R	0	0	0	421.629965699976	421.829978499794
98923	100	431	11	1	1	35	8	8	0	0	0	stim009_stimuli_original_vehicles_boats_1.png	K	0	0	0	422.029974299949	422.229979199823
102302.25	100	432	12	0	40	0	4	2	0	0	0	stim005_stimuli_original_animals_fish_1.png	C	0	0	0	435.546994999982	435.74699159991
102402.25	100	433	12	0	40	1	12	0	0	0	0	stim013_stimuli_original_vehicles_planes_1.png	A	0	0	0	435.947002699832	436.1470046998
102502.25	100	434	12	0	40	2	3	14	0	0	0	stim004_stimuli_original_animals_birds_4.png	V	0	0	0	436.347015999956	436.547009899979
102602.25	100	435	12	0	40	3	8	11	0	0	0	stim009_stimuli_original_vehicles_boats_1.png	R	0	0	0	436.747024099808	436.947025300004
102702.25	100	436	12	0	40	4	5	7	0	0	0	stim006_stimuli_original_animals_fish_2.png	J	0	0	0	437.147034799913	437.347037300002
102802.25	100	437	12	0	40	5	7	2	0	1	0	stim008_stimuli_original_animals_fish_4.png	C	0	0	0	437.547045999905	437.747043999843
102902.25	100	438	12	0	40	6	1	6	0	0	0	stim002_stimuli_original_animals_birds_2.png	G	0	0	0	437.9470575999	438.147078299895
103002.25	100	439	12	0	40	7	11	2	0	1	0	stim012_stimuli_original_vehicles_boats_4.png	C	0	0	0	438.347068500007	438.547084699851
103102.25	100	440	12	0	40	8	13	15	0	0	0	stim014_stimuli_original_vehicles_planes_2.png	Y	0	0	0	438.747077999869	438.947074899916
103202.25	100	441	12	0	40	9	1	12	1	0	0	stim002_stimuli_original_animals_birds_2.png	T	0	0	0	439.147092399886	439.347087899921
103302.25	100	442	12	0	40	10	15	9	0	0	0	stim016_stimuli_original_vehicles_planes_4.png	L	0	0	0	439.547118399991	439.747117999941
103402.25	100	443	12	0	40	11	1	3	1	0	1	stim002_stimuli_original_animals_birds_2.png	D	0	0	0	439.947137799812	440.147109800018
103502.25	100	444	12	0	40	12	10	10	0	0	0	stim011_stimuli_original_vehicles_boats_3.png	Q	s	440.538945999928	1	440.347123399843	440.547117499867
103602.25	100	445	12	0	40	13	9	13	0	0	0	stim010_stimuli_original_vehicles_boats_2.png	U	0	0	0	440.747134199832	440.947140999837
103702.25	100	446	12	0	40	14	0	4	0	0	0	stim001_stimuli_original_animals_birds_1.png	E	0	0	0	441.147151999874	441.347153999843
103802.25	100	447	12	0	40	15	2	1	0	0	0	stim003_stimuli_original_animals_birds_3.png	B	0	0	0	441.547162199859	441.747162299929
103902.25	100	448	12	0	40	16	14	5	0	0	0	stim015_stimuli_original_vehicles_planes_3.png	F	0	0	0	441.947177099995	442.147192899836
104002.25	100	449	12	0	40	17	6	8	0	0	0	stim007_stimuli_original_animals_fish_3.png	K	0	0	0	442.347185399849	442.547183999792
104102.5	100	450	12	0	40	18	8	6	0	0	0	stim009_stimuli_original_vehicles_boats_1.png	G	0	0	0	442.747200299986	442.947197199799
104202.5	100	451	12	0	40	19	5	14	0	0	0	stim006_stimuli_original_animals_fish_2.png	V	0	0	0	443.147206099937	443.347207600018
104302.5	100	452	12	0	40	20	1	2	0	0	0	stim002_stimuli_original_animals_birds_2.png	C	0	0	0	443.547216499923	443.747216799995
104402.5	100	453	12	0	40	21	4	0	0	0	0	stim005_stimuli_original_animals_fish_1.png	A	0	0	0	443.947226499906	444.147239399841
104502.5	100	454	12	0	40	22	13	9	0	0	0	stim014_stimuli_original_vehicles_planes_2.png	L	0	0	0	444.347241999814	444.547234199941
104602.5	100	455	12	0	40	23	10	10	0	0	0	stim011_stimuli_original_vehicles_boats_3.png	Q	0	0	0	444.747252699919	444.94724969985
104702.5	100	456	12	0	40	24	3	1	0	1	0	stim004_stimuli_original_animals_birds_4.png	B	0	0	0	445.147259899881	445.347260399954
104802.5	100	457	12	0	40	25	9	15	0	0	0	stim010_stimuli_original_vehicles_boats_2.png	Y	0	0	0	445.547269099858	445.747269899817
104902.5	100	458	12	0	40	26	12	1	0	1	0	stim013_stimuli_original_vehicles_planes_1.png	B	0	0	0	445.947283099871	446.147302599857
105002.5	100	459	12	0	40	27	15	13	0	0	0	stim016_stimuli_original_vehicles_planes_4.png	U	0	0	0	446.347296899883	446.547288300004
105102.5	100	460	12	0	40	28	2	11	1	0	0	stim003_stimuli_original_animals_birds_3.png	R	s	446.739983899985	0	446.747300299816	446.94730479992
105202.5	100	461	12	0	40	29	6	1	0	0	0	stim007_stimuli_original_animals_fish_3.png	B	0	0	0	447.147312999936	447.347316599917
105302.5	100	462	12	0	40	30	2	7	1	0	1	stim003_stimuli_original_animals_birds_3.png	J	0	0	0	447.547322599916	447.747322299983
105402.5	100	463	12	0	40	31	7	5	0	0	0	stim008_stimuli_original_animals_fish_4.png	F	0	0	0	447.947346000001	448.147334699985
105502.5	100	464	12	0	40	32	11	8	0	0	0	stim012_stimuli_original_vehicles_boats_4.png	K	0	0	0	448.347344500013	448.547346699983
105602.5	100	465	12	0	40	33	14	3	0	0	0	stim015_stimuli_original_vehicles_planes_3.png	D	0	0	0	448.747354499996	448.947354499949
105702.5	100	466	12	0	40	34	0	12	0	0	0	stim001_stimuli_original_animals_birds_1.png	T	0	0	0	449.147368700011	449.347371699987
105802.5	100	467	12	0	40	35	2	4	0	0	0	stim003_stimuli_original_animals_birds_3.png	E	0	0	0	449.547381599899	449.747389499797
107973.25	100	468	13	1	15	0	14	6	0	0	0	stim015_stimuli_original_vehicles_planes_3.png	G	0	0	0	458.230930999853	458.430932099931
108073.25	100	469	13	1	15	1	4	12	0	0	0	stim005_stimuli_original_animals_fish_1.png	T	0	0	0	458.630943099968	458.830963199958
108173.25	100	470	13	1	15	2	5	15	0	0	0	stim006_stimuli_original_animals_fish_2.png	Y	0	0	0	459.030953199835	459.230952099897
108273.25	100	471	13	1	15	3	7	11	0	0	0	stim008_stimuli_original_animals_fish_4.png	R	0	0	0	459.430968399858	459.630963200005
108373.25	100	472	13	1	15	4	10	8	1	0	0	stim011_stimuli_original_vehicles_boats_3.png	K	0	0	0	459.830976799829	460.030977699906
108473.25	100	473	13	1	15	5	8	2	0	0	0	stim009_stimuli_original_vehicles_boats_1.png	C	0	0	0	460.230985099915	460.43099659984
108573.25	100	474	13	1	15	6	10	5	1	0	0	stim011_stimuli_original_vehicles_boats_3.png	F	0	0	0	460.631013099803	460.830997899873
108673.25	100	475	13	1	15	7	13	4	0	0	0	stim014_stimuli_original_vehicles_planes_2.png	E	0	0	0	461.03102629981	461.231007299852
108773.25	100	476	13	1	15	8	3	0	0	1	0	stim004_stimuli_original_animals_birds_4.png	A	0	0	0	461.43102979986	461.631017599953
108873.25	100	477	13	1	15	9	2	9	0	0	0	stim003_stimuli_original_animals_birds_3.png	L	0	0	0	461.831030400004	462.031039000023
108973.25	100	478	13	1	15	10	12	0	0	1	1	stim013_stimuli_original_vehicles_planes_1.png	A	0	0	0	462.231066999957	462.431048400002
109073.25	100	479	13	1	15	11	11	13	0	0	0	stim012_stimuli_original_vehicles_boats_4.png	U	0	0	0	462.631066699978	462.831059099874
109173.25	100	480	13	1	15	12	1	1	0	0	0	stim002_stimuli_original_animals_birds_2.png	B	s	463.023763699923	1	463.031082500005	463.231071099872
109273.25	100	481	13	1	15	13	10	0	0	0	0	stim011_stimuli_original_vehicles_boats_3.png	A	0	0	0	463.431082599796	463.631113499869
109373.25	100	482	13	1	15	14	15	7	0	0	0	stim016_stimuli_original_vehicles_planes_4.png	J	0	0	0	463.831093400018	464.031061199959
109473.25	100	483	13	1	15	15	9	14	0	0	0	stim010_stimuli_original_vehicles_boats_2.png	V	0	0	0	464.231105299899	464.43110019993
109573.25	100	484	13	1	15	16	6	10	0	0	0	stim007_stimuli_original_animals_fish_3.png	Q	0	0	0	464.631113499869	464.831119399983
109673.25	100	485	13	1	15	17	0	3	0	0	0	stim001_stimuli_original_animals_birds_1.png	D	0	0	0	465.031124499859	465.23114999989
109773.25	100	486	13	1	15	18	3	0	0	0	0	stim004_stimuli_original_animals_birds_4.png	A	0	0	0	465.431132699829	465.631135999924
109873.25	100	487	13	1	15	19	10	6	0	0	0	stim011_stimuli_original_vehicles_boats_3.png	G	s	466.022970599821	0	465.831149299862	466.031144100009
109973.25	100	488	13	1	15	20	14	9	0	0	0	stim015_stimuli_original_vehicles_planes_3.png	L	0	0	0	466.231140999822	466.431156300008
110073.25	100	489	13	1	15	21	7	15	0	0	0	stim008_stimuli_original_animals_fish_4.png	Y	0	0	0	466.631167199928	466.831168399891
110173.25	100	490	13	1	15	22	0	10	0	0	0	stim001_stimuli_original_animals_birds_1.png	Q	0	0	0	467.031179099809	467.23117519985
110273.25	100	491	13	1	15	23	1	1	0	0	0	stim002_stimuli_original_animals_birds_2.png	B	0	0	0	467.431187399896	467.63118789997
110373.25	100	492	13	1	15	24	13	11	0	0	0	stim014_stimuli_original_vehicles_planes_2.png	R	0	0	0	467.831204299815	468.031185999978
110473.25	100	493	13	1	15	25	0	12	1	0	0	stim001_stimuli_original_animals_birds_1.png	T	0	0	0	468.231198099907	468.431198799983
110573.25	100	494	13	1	15	26	9	2	0	0	0	stim010_stimuli_original_vehicles_boats_2.png	C	0	0	0	468.631209000014	468.831222099951
110673.25	100	495	13	1	15	27	0	3	1	0	0	stim001_stimuli_original_animals_birds_1.png	D	0	0	0	469.031221299898	469.231220999965
110773.25	100	496	13	1	15	28	4	13	0	0	0	stim005_stimuli_original_animals_fish_1.png	U	0	0	0	469.431230099872	469.63123379997
110873.25	100	497	13	1	15	29	5	10	0	1	0	stim006_stimuli_original_animals_fish_2.png	Q	0	0	0	469.831244000001	470.031241099816
110973.25	100	498	13	1	15	30	2	8	0	0	0	stim003_stimuli_original_animals_birds_3.png	K	0	0	0	470.231253099861	470.431251799921
111073.5	100	499	13	1	15	31	8	10	0	1	1	stim009_stimuli_original_vehicles_boats_1.png	Q	0	0	0	470.631281899987	470.831264099805
111173.5	100	500	13	1	15	32	11	7	0	0	0	stim012_stimuli_original_vehicles_boats_4.png	J	0	0	0	471.031300299801	471.231272599893
111273.5	100	501	13	1	15	33	15	5	0	0	0	stim016_stimuli_original_vehicles_planes_4.png	F	s	471.423949699849	1	471.431295200018	471.631282399874
111373.5	100	502	13	1	15	34	12	4	0	0	0	stim013_stimuli_original_vehicles_planes_1.png	E	0	0	0	471.831294899806	472.03129329998
111473.5	100	503	13	1	15	35	6	14	0	0	0	stim007_stimuli_original_animals_fish_3.png	V	0	0	0	472.231304900022	472.431313899811
112881.75	100	504	14	0	27	0	8	3	0	0	0	stim009_stimuli_original_vehicles_boats_1.png	D	0	0	0	477.864806199912	478.064796999795
112981.75	100	505	14	0	27	1	3	1	0	0	0	stim004_stimuli_original_animals_birds_4.png	B	0	0	0	478.264810299966	478.464810899924
113081.75	100	506	14	0	27	2	15	11	0	0	0	stim016_stimuli_original_vehicles_planes_4.png	R	0	0	0	478.664820599835	478.864822399803
113181.75	100	507	14	0	27	3	1	15	0	0	0	stim002_stimuli_original_animals_birds_2.png	Y	0	0	0	479.064833299955	479.264818399912
113281.75	100	508	14	0	27	4	12	0	1	0	0	stim013_stimuli_original_vehicles_planes_1.png	A	0	0	0	479.464846799849	479.664845299907
113381.75	100	509	14	0	27	5	7	10	0	0	0	stim008_stimuli_original_animals_fish_4.png	Q	0	0	0	479.864868799923	480.064874399919
113481.75	100	510	14	0	27	6	12	13	1	1	1	stim013_stimuli_original_vehicles_planes_1.png	U	0	0	0	480.264869099949	480.464866499882
113581.75	100	511	14	0	27	7	14	6	0	0	0	stim015_stimuli_original_vehicles_planes_3.png	G	s	480.865085099824	1	480.664879199816	480.864894799888
113681.75	100	512	14	0	27	8	10	13	0	1	0	stim011_stimuli_original_vehicles_boats_3.png	U	0	0	0	481.064899899997	481.264885799959
113781.75	100	513	14	0	27	9	5	12	0	0	0	stim006_stimuli_original_animals_fish_2.png	T	0	0	0	481.464903099928	481.664898199961
113881.75	100	514	14	0	27	10	4	4	0	0	0	stim005_stimuli_original_animals_fish_1.png	E	0	0	0	481.864889599849	482.064904199913
113981.75	100	515	14	0	27	11	12	13	0	0	0	stim013_stimuli_original_vehicles_planes_1.png	U	0	0	0	482.264928399818	482.4649278
114081.75	100	516	14	0	27	12	11	2	0	0	0	stim012_stimuli_original_vehicles_boats_4.png	C	0	0	0	482.664938599803	482.864939199993
114181.75	100	517	14	0	27	13	6	9	0	0	0	stim007_stimuli_original_animals_fish_3.png	L	0	0	0	483.064945799997	483.264948599972
114281.75	100	518	14	0	27	14	9	8	0	0	0	stim010_stimuli_original_vehicles_boats_2.png	K	0	0	0	483.464953499846	483.664952399908
114381.75	100	519	14	0	27	15	0	14	0	0	0	stim001_stimuli_original_animals_birds_1.png	V	0	0	0	483.864965799963	484.064965299796
114481.75	100	520	14	0	27	16	13	7	0	0	0	stim014_stimuli_original_vehicles_planes_2.png	J	0	0	0	484.264971099794	484.464959699893
114581.75	100	521	14	0	27	17	2	5	0	0	0	stim003_stimuli_original_animals_birds_3.png	F	0	0	0	484.664967999794	484.864983599866
114681.75	100	522	14	0	27	18	5	2	0	0	0	stim006_stimuli_original_animals_fish_2.png	C	0	0	0	485.064982099924	485.265000900021
114781.75	100	523	14	0	27	19	7	13	0	0	0	stim008_stimuli_original_animals_fish_4.png	U	0	0	0	485.4649910999	485.664990899852
114881.75	100	524	14	0	27	20	14	0	0	0	0	stim015_stimuli_original_vehicles_planes_3.png	A	0	0	0	485.8650055998	486.065003599972
114981.75	100	525	14	0	27	21	8	9	0	0	0	stim009_stimuli_original_vehicles_boats_1.png	L	0	0	0	486.265034299809	486.465034799883
115081.75	100	526	14	0	27	22	9	6	0	0	0	stim010_stimuli_original_vehicles_boats_2.png	G	0	0	0	486.665015399922	486.865023099817
115181.75	100	527	14	0	27	23	2	11	0	0	0	stim003_stimuli_original_animals_birds_3.png	R	0	0	0	487.065033899853	487.265034999931
115281.75	100	528	14	0	27	24	13	12	0	0	0	stim014_stimuli_original_vehicles_planes_2.png	T	0	0	0	487.465069199912	487.665043199901
115381.75	100	529	14	0	27	25	4	4	0	0	0	stim005_stimuli_original_animals_fish_1.png	E	0	0	0	487.865055099828	488.065066599986
115481.75	100	530	14	0	27	26	12	5	0	0	0	stim013_stimuli_original_vehicles_planes_1.png	F	0	0	0	488.265078399796	488.465080399998
115581.75	100	531	14	0	27	27	13	10	1	0	0	stim014_stimuli_original_vehicles_planes_2.png	Q	0	0	0	488.665088899899	488.865089799976
115681.75	100	532	14	0	27	28	6	14	0	0	0	stim007_stimuli_original_animals_fish_3.png	V	s	489.057764999801	0	489.065107099945	489.265097899828
115781.75	100	533	14	0	27	29	13	12	1	1	1	stim014_stimuli_original_vehicles_planes_2.png	T	0	0	0	489.465109399986	489.665120200021
115881.75	100	534	14	0	27	30	10	7	0	0	0	stim011_stimuli_original_vehicles_boats_3.png	J	0	0	0	489.865124200005	490.065120099811
115981.75	100	535	14	0	27	31	0	12	0	1	0	stim001_stimuli_original_animals_birds_1.png	T	0	0	0	490.265129299834	490.46513489983
116081.75	100	536	14	0	27	32	15	1	0	0	0	stim016_stimuli_original_vehicles_planes_4.png	B	0	0	0	490.665142499842	490.865141100017
116181.75	100	537	14	0	27	33	11	15	0	0	0	stim012_stimuli_original_vehicles_boats_4.png	Y	0	0	0	491.065155099845	491.265150499996
116281.75	100	538	14	0	27	34	1	3	0	0	0	stim002_stimuli_original_animals_birds_2.png	D	0	0	0	491.465162499808	491.665162599878
116381.75	100	539	14	0	27	35	3	8	0	0	0	stim004_stimuli_original_animals_birds_4.png	K	0	0	0	491.865165099967	492.065160400001
119369.5	100	540	15	1	45	0	3	11	0	0	0	stim004_stimuli_original_animals_birds_4.png	R	0	0	0	503.815479299985	504.015479599824
119469.5	100	541	15	1	45	1	4	8	0	0	0	stim005_stimuli_original_animals_fish_1.png	K	0	0	0	504.215500199934	504.415509899845
119569.5	100	542	15	1	45	2	13	6	0	0	0	stim014_stimuli_original_vehicles_planes_2.png	G	0	0	0	504.615498499945	504.815497699892
119669.5	100	543	15	1	45	3	5	3	0	0	0	stim006_stimuli_original_animals_fish_2.png	D	0	0	0	505.015510699945	505.215519099962
119769.5	100	544	15	1	45	4	11	4	0	0	0	stim012_stimuli_original_vehicles_boats_4.png	E	0	0	0	505.415541199967	505.615539699793
119869.5	100	545	15	1	45	5	6	7	0	0	0	stim007_stimuli_original_animals_fish_3.png	J	0	0	0	505.815530699911	506.015545099974
119969.5	100	546	15	1	45	6	8	0	0	0	0	stim009_stimuli_original_vehicles_boats_1.png	A	0	0	0	506.215577399824	506.415553899948
120069.5	100	547	15	1	45	7	15	15	0	0	0	stim016_stimuli_original_vehicles_planes_4.png	Y	0	0	0	506.615564599866	506.815562299918
120169.5	100	548	15	1	45	8	9	2	0	0	0	stim010_stimuli_original_vehicles_boats_2.png	C	0	0	0	507.015603499953	507.21559089981
120269.5	100	549	15	1	45	9	12	1	0	0	0	stim013_stimuli_original_vehicles_planes_1.png	B	0	0	0	507.415584699949	507.615587399807
120369.5	100	550	15	1	45	10	15	10	1	0	0	stim016_stimuli_original_vehicles_planes_4.png	Q	0	0	0	507.815594599815	508.015599599807
120469.5	100	551	15	1	45	11	0	14	0	0	0	stim001_stimuli_original_animals_birds_1.png	V	0	0	0	508.215616999893	508.415607000003
120569.5	100	552	15	1	45	12	15	3	1	1	0	stim016_stimuli_original_vehicles_planes_4.png	D	0	0	0	508.615616099909	508.815616599983
120669.5	100	553	15	1	45	13	7	5	0	0	0	stim008_stimuli_original_animals_fish_4.png	F	0	0	0	509.015628099907	509.215631200001
120769.5	100	554	15	1	45	14	14	3	0	1	1	stim015_stimuli_original_vehicles_planes_3.png	D	0	0	0	509.415639299899	509.615661899792
120869.5	100	555	15	1	45	15	2	13	0	0	0	stim003_stimuli_original_animals_birds_3.png	U	0	0	0	509.815638099797	510.015641199891
120969.5	100	556	15	1	45	16	10	12	0	0	0	stim011_stimuli_original_vehicles_boats_3.png	T	0	0	0	510.215685099829	510.415647899965
121069.5	100	557	15	1	45	17	1	9	0	0	0	stim002_stimuli_original_animals_birds_2.png	L	0	0	0	510.615679099923	510.815670099808
121169.5	100	558	15	1	45	18	9	1	0	0	0	stim010_stimuli_original_vehicles_boats_2.png	B	0	0	0	511.015680899844	511.215681199916
121269.5	100	559	15	1	45	19	12	10	0	0	0	stim013_stimuli_original_vehicles_planes_1.png	Q	0	0	0	511.415690799942	511.615691100014
121369.5	100	560	15	1	45	20	13	2	0	0	0	stim014_stimuli_original_vehicles_planes_2.png	C	0	0	0	511.815718799829	512.015702599892
121469.5	100	561	15	1	45	21	3	14	1	0	0	stim004_stimuli_original_animals_birds_4.png	V	0	0	0	512.215727499919	512.415715599898
121569.5	100	562	15	1	45	22	5	7	0	0	0	stim006_stimuli_original_animals_fish_2.png	J	0	0	0	512.615723499795	512.815723799868
121669.5	100	563	15	1	45	23	3	15	1	1	0	stim004_stimuli_original_animals_birds_4.png	Y	0	0	0	513.015733599896	513.215737099992
121769.5	100	564	15	1	45	24	14	0	0	0	0	stim015_stimuli_original_vehicles_planes_3.png	A	0	0	0	513.415744500002	513.61574199982
121869.5	100	565	15	1	45	25	10	15	0	1	1	stim011_stimuli_original_vehicles_boats_3.png	Y	0	0	0	513.815756599884	514.015757699963
121969.5	100	566	15	1	45	26	1	12	0	0	0	stim002_stimuli_original_animals_birds_2.png	T	0	0	0	514.215770999901	514.415788999991
122069.5	100	567	15	1	45	27	2	9	0	0	0	stim003_stimuli_original_animals_birds_3.png	L	0	0	0	514.61576700001	514.815765499836
122169.5	100	568	15	1	45	28	15	15	0	0	0	stim016_stimuli_original_vehicles_planes_4.png	Y	0	0	0	515.015779400012	515.215779099846
122269.5	100	569	15	1	45	29	0	8	0	0	0	stim001_stimuli_original_animals_birds_1.png	K	0	0	0	515.415787999984	515.615785699803
122369.5	100	570	15	1	45	30	7	6	0	0	0	stim008_stimuli_original_animals_fish_4.png	G	0	0	0	515.815818599891	516.015796300024
122469.5	100	571	15	1	45	31	4	11	0	0	0	stim005_stimuli_original_animals_fish_1.png	R	0	0	0	516.215813499875	516.415808100021
122569.5	100	572	15	1	45	32	3	5	0	0	0	stim004_stimuli_original_animals_birds_4.png	F	0	0	0	516.61581849982	516.8158177
122669.5	100	573	15	1	45	33	6	13	0	0	0	stim007_stimuli_original_animals_fish_3.png	U	0	0	0	517.015834099846	517.215856099967
122769.5	100	574	15	1	45	34	8	4	0	0	0	stim009_stimuli_original_vehicles_boats_1.png	E	0	0	0	517.415853000013	517.615842399886
122869.5	100	575	15	1	45	35	11	3	0	0	0	stim012_stimuli_original_vehicles_boats_4.png	D	0	0	0	517.815852099797	518.015852799872
124207	100	576	16	0	22	0	1	3	0	0	0	stim002_stimuli_original_animals_birds_2.png	D	0	0	0	523.16599849984	523.365997599903
124307	100	577	16	0	22	1	11	12	0	0	0	stim012_stimuli_original_vehicles_boats_4.png	T	0	0	0	523.566061899997	523.766006899998
124407	100	578	16	0	22	2	9	10	0	0	0	stim010_stimuli_original_vehicles_boats_2.png	Q	0	0	0	523.966018699808	524.166019999888
124507	100	579	16	0	22	3	12	2	0	0	0	stim013_stimuli_original_vehicles_planes_1.png	C	0	0	0	524.366029199911	524.566028899979
124607	100	580	16	0	22	4	2	13	0	0	0	stim003_stimuli_original_animals_birds_3.png	U	0	0	0	524.766062499955	524.966037899954
124707	100	581	16	0	22	5	4	11	0	0	0	stim005_stimuli_original_animals_fish_1.png	R	0	0	0	525.166073799832	525.366049799835
124807	100	582	16	0	22	6	3	15	0	0	0	stim004_stimuli_original_animals_birds_4.png	Y	0	0	0	525.566062399885	525.766061999835
124907	100	583	16	0	22	7	10	14	0	0	0	stim011_stimuli_original_vehicles_boats_3.png	V	0	0	0	525.966070799856	526.166070499923
125007	100	584	16	0	22	8	11	8	1	0	0	stim012_stimuli_original_vehicles_boats_4.png	K	0	0	0	526.366081799846	526.566080799792
125107	100	585	16	0	22	9	13	4	0	0	0	stim014_stimuli_original_vehicles_planes_2.png	E	0	0	0	526.766096199863	526.966095799813
125207	100	586	16	0	22	10	11	7	1	1	1	stim012_stimuli_original_vehicles_boats_4.png	J	0	0	0	527.16610419983	527.36610289989
125307	100	587	16	0	22	11	7	0	0	0	0	stim008_stimuli_original_animals_fish_4.png	A	0	0	0	527.566115599824	527.766116200015
125407	100	588	16	0	22	12	15	7	0	1	0	stim016_stimuli_original_vehicles_planes_4.png	J	0	0	0	527.966124999803	528.166126199998
125507	100	589	16	0	22	13	6	5	0	0	0	stim007_stimuli_original_animals_fish_3.png	F	s	528.358767099911	1	528.366134499898	528.566134999972
125607	100	590	16	0	22	14	5	6	0	0	0	stim006_stimuli_original_animals_fish_2.png	G	0	0	0	528.766160300002	528.966145099839
125707	100	591	16	0	22	15	0	1	0	0	0	stim001_stimuli_original_animals_birds_1.png	B	0	0	0	529.166159400018	529.366155799944
125807	100	592	16	0	22	16	8	9	0	0	0	stim009_stimuli_original_vehicles_boats_1.png	L	0	0	0	529.566168099875	529.766166799935
125907	100	593	16	0	22	17	14	7	0	0	0	stim015_stimuli_original_vehicles_planes_3.png	J	0	0	0	529.966177699855	530.166179099819
126007	100	594	16	0	22	18	7	14	0	0	0	stim008_stimuli_original_animals_fish_4.png	V	0	0	0	530.366189399967	530.56621249998
126107	100	595	16	0	22	19	9	8	0	0	0	stim010_stimuli_original_vehicles_boats_2.png	K	0	0	0	530.76620029984	530.966200099792
126207	100	596	16	0	22	20	1	0	0	0	0	stim002_stimuli_original_animals_birds_2.png	A	0	0	0	531.16621109983	531.366209700005
126307	100	597	16	0	22	21	6	5	0	0	0	stim007_stimuli_original_animals_fish_3.png	F	0	0	0	531.566222299822	531.766240399797
126407	100	598	16	0	22	22	5	6	0	0	0	stim006_stimuli_original_animals_fish_2.png	G	0	0	0	531.966233899817	532.166230699979
126507	100	599	16	0	22	23	7	15	1	0	0	stim008_stimuli_original_animals_fish_4.png	Y	0	0	0	532.366242300021	532.566241899971
126607	100	600	16	0	22	24	0	7	0	0	0	stim001_stimuli_original_animals_birds_1.png	J	0	0	0	532.766253300011	532.966250699945
126707	100	601	16	0	22	25	7	11	1	1	1	stim008_stimuli_original_animals_fish_4.png	R	0	0	0	533.166263999883	533.366262599826
126807	100	602	16	0	22	26	4	13	0	0	0	stim005_stimuli_original_animals_fish_1.png	U	0	0	0	533.566274799872	533.766275199829
126907	100	603	16	0	22	27	8	11	0	1	0	stim009_stimuli_original_vehicles_boats_1.png	R	s	533.95895949984	1	533.966283999849	534.166283899918
127007	100	604	16	0	22	28	14	10	0	0	0	stim015_stimuli_original_vehicles_planes_3.png	Q	0	0	0	534.366295999847	534.5662936999
127107	100	605	16	0	22	29	15	3	0	0	0	stim016_stimuli_original_vehicles_planes_4.png	D	0	0	0	534.766305299941	534.966330999974
127207	100	606	16	0	22	30	11	4	0	0	0	stim012_stimuli_original_vehicles_boats_4.png	E	0	0	0	535.166318999836	535.366334699793
127307	100	607	16	0	22	31	13	2	0	0	0	stim014_stimuli_original_vehicles_planes_2.png	C	0	0	0	535.566328399815	535.766327099875
127407	100	608	16	0	22	32	2	12	0	0	0	stim003_stimuli_original_animals_birds_3.png	T	0	0	0	535.966338499915	536.166338399984
127507	100	609	16	0	22	33	10	9	0	0	0	stim011_stimuli_original_vehicles_boats_3.png	L	0	0	0	536.366347800009	536.56634829985
127607	100	610	16	0	22	34	12	11	0	0	0	stim013_stimuli_original_vehicles_planes_1.png	R	0	0	0	536.766360600013	536.966359099839
127707	100	611	16	0	22	35	3	1	0	0	0	stim004_stimuli_original_animals_birds_4.png	B	0	0	0	537.166370899882	537.366396099795
132807.25	100	612	17	1	34	0	1	0	0	0	0	stim002_stimuli_original_animals_birds_2.png	A	0	0	0	557.566916299984	557.766912599793
132907.25	100	613	17	1	34	1	10	7	0	0	0	stim011_stimuli_original_vehicles_boats_3.png	J	0	0	0	557.966925199842	558.166925999802
133007.25	100	614	17	1	34	2	15	12	0	0	0	stim016_stimuli_original_vehicles_planes_4.png	T	0	0	0	558.36693629995	558.566935600014
133107.25	100	615	17	1	34	3	6	14	0	0	0	stim007_stimuli_original_animals_fish_3.png	V	0	0	0	558.766947799828	558.966945899883
133207.25	100	616	17	1	34	4	11	3	0	0	0	stim012_stimuli_original_vehicles_boats_4.png	D	0	0	0	559.166955099907	559.366961299907
133307.25	100	617	17	1	34	5	5	11	1	0	0	stim006_stimuli_original_animals_fish_2.png	R	0	0	0	559.566968899919	559.766968899872
133407.25	100	618	17	1	34	6	12	2	0	0	0	stim013_stimuli_original_vehicles_planes_1.png	C	0	0	0	559.966978400014	560.166979299858
133507.25	100	619	17	1	34	7	5	10	1	0	0	stim006_stimuli_original_animals_fish_2.png	Q	0	0	0	560.36698829988	560.566988799954
133607.25	100	620	17	1	34	8	3	3	0	1	0	stim004_stimuli_original_animals_birds_4.png	D	0	0	0	560.767001600005	560.967004799983
133707.25	100	621	17	1	34	9	8	8	0	0	0	stim009_stimuli_original_vehicles_boats_1.png	K	0	0	0	561.167010999983	561.367031999864
133807.25	100	622	17	1	34	10	4	3	0	1	1	stim005_stimuli_original_animals_fish_1.png	D	0	0	0	561.567021299852	561.767020799918
133907.25	100	623	17	1	34	11	5	13	0	0	0	stim006_stimuli_original_animals_fish_2.png	U	0	0	0	561.967035399983	562.167031699792
134007.25	100	624	17	1	34	12	9	9	0	0	0	stim010_stimuli_original_vehicles_boats_2.png	L	s	562.359681299888	1	562.367040199926	562.567043799907
134107.25	100	625	17	1	34	13	14	4	0	0	0	stim015_stimuli_original_vehicles_planes_3.png	E	0	0	0	562.767053199932	562.96705379989
134207.25	100	626	17	1	34	14	7	6	0	0	0	stim008_stimuli_original_animals_fish_4.png	G	0	0	0	563.167064299807	563.367062099976
134307.25	100	627	17	1	34	15	2	5	0	0	0	stim003_stimuli_original_animals_birds_3.png	F	0	0	0	563.567072999896	563.767084099818
134407.25	100	628	17	1	34	16	0	15	0	0	0	stim001_stimuli_original_animals_birds_1.png	Y	0	0	0	563.967109099962	564.167097699828
134507.25	100	629	17	1	34	17	13	1	0	0	0	stim014_stimuli_original_vehicles_planes_2.png	B	0	0	0	564.367109199986	564.567106599919
134607.25	100	630	17	1	34	18	1	13	0	0	0	stim002_stimuli_original_animals_birds_2.png	U	0	0	0	564.767117599957	564.96711759991
134707.25	100	631	17	1	34	19	15	0	0	0	0	stim016_stimuli_original_vehicles_planes_4.png	A	0	0	0	565.167128099827	565.367129500024
134807.25	100	632	17	1	34	20	5	2	0	0	0	stim006_stimuli_original_animals_fish_2.png	C	0	0	0	565.567139799939	565.767129999818
134907.25	100	633	17	1	34	21	6	7	0	0	0	stim007_stimuli_original_animals_fish_3.png	J	0	0	0	565.967137199827	566.167159299832
135007.25	100	634	17	1	34	22	4	14	0	0	0	stim005_stimuli_original_animals_fish_1.png	V	0	0	0	566.367148099933	566.567150299903
135107.25	100	635	17	1	34	23	9	9	0	0	0	stim010_stimuli_original_vehicles_boats_2.png	L	0	0	0	566.767161599826	566.967157599982
135207.25	100	636	17	1	34	24	13	5	0	0	0	stim014_stimuli_original_vehicles_planes_2.png	F	0	0	0	567.167170499917	567.36716959998
135307.25	100	637	17	1	34	25	3	4	1	0	0	stim004_stimuli_original_animals_birds_4.png	E	0	0	0	567.567181599792	567.767182999989
135407.25	100	638	17	1	34	26	8	8	0	0	0	stim009_stimuli_original_vehicles_boats_1.png	K	0	0	0	567.967191299889	568.167191299843
135507.25	100	639	17	1	34	27	3	3	1	0	0	stim004_stimuli_original_animals_birds_4.png	D	0	0	0	568.367200799985	568.567212899914
135607.25	100	640	17	1	34	28	10	5	0	1	0	stim011_stimuli_original_vehicles_boats_3.png	F	0	0	0	568.76720929984	568.967212699819
135707.25	100	641	17	1	34	29	2	12	0	0	0	stim003_stimuli_original_animals_birds_3.png	T	0	0	0	569.167232799809	569.367236200022
135807.25	100	642	17	1	34	30	11	5	0	1	1	stim012_stimuli_original_vehicles_boats_4.png	F	s	569.559935699916	1	569.567246799823	569.767254099948
135907.25	100	643	17	1	34	31	3	11	0	0	0	stim004_stimuli_original_animals_birds_4.png	R	0	0	0	569.967264899984	570.167247599922
136007.25	100	644	17	1	34	32	14	6	0	0	0	stim015_stimuli_original_vehicles_planes_3.png	G	0	0	0	570.367255499819	570.567266599974
136107.25	100	645	17	1	34	33	12	15	0	0	0	stim013_stimuli_original_vehicles_planes_1.png	Y	0	0	0	570.767266099807	570.967265599873
136207.25	100	646	17	1	34	34	7	10	0	0	0	stim008_stimuli_original_animals_fish_4.png	Q	0	0	0	571.167275999906	571.367275999859
136307.25	100	647	17	1	34	35	0	1	0	0	0	stim001_stimuli_original_animals_birds_1.png	B	0	0	0	571.567287999904	571.767285999842
137832.25	100	648	18	0	23	0	2	1	0	0	0	stim003_stimuli_original_animals_birds_3.png	B	0	0	0	577.66749319993	577.867477199994
137932.25	100	649	18	0	23	1	13	14	0	0	0	stim014_stimuli_original_vehicles_planes_2.png	V	0	0	0	578.067488599801	578.267486499855
138032.25	100	650	18	0	23	2	4	5	0	0	0	stim005_stimuli_original_animals_fish_1.png	F	0	0	0	578.467495099874	578.667494299822
138132.25	100	651	18	0	23	3	15	2	0	0	0	stim016_stimuli_original_vehicles_planes_4.png	C	0	0	0	578.867484999821	579.067503599916
138232.25	100	652	18	0	23	4	11	15	0	0	0	stim012_stimuli_original_vehicles_boats_4.png	Y	0	0	0	579.267524399795	579.467516999925
138332.25	100	653	18	0	23	5	10	9	0	0	0	stim011_stimuli_original_vehicles_boats_3.png	L	0	0	0	579.667559999973	579.867524599889
138432.25	100	654	18	0	23	6	15	4	1	0	0	stim016_stimuli_original_vehicles_planes_4.png	E	0	0	0	580.067538299831	580.267535799881
138532.25	100	655	18	0	23	7	9	12	0	0	0	stim010_stimuli_original_vehicles_boats_2.png	T	0	0	0	580.46754959994	580.667547599878
138632.25	100	656	18	0	23	8	15	0	1	0	1	stim016_stimuli_original_vehicles_planes_4.png	A	0	0	0	580.867558799917	581.067557799863
138732.5	100	657	18	0	23	9	6	11	0	0	0	stim007_stimuli_original_animals_fish_3.png	R	0	0	0	581.267567599891	581.467572299996
138832.5	100	658	18	0	23	10	3	8	0	0	0	stim004_stimuli_original_animals_birds_4.png	K	s	581.660232699942	1	581.667582499795	581.867579299957
138932.5	100	659	18	0	23	11	7	12	0	1	0	stim008_stimuli_original_animals_fish_4.png	T	0	0	0	582.067590099992	582.267592299962
139032.5	100	660	18	0	23	12	0	13	0	0	0	stim001_stimuli_original_animals_birds_1.png	U	0	0	0	582.467600999866	582.667596899904
139132.5	100	661	18	0	23	13	8	12	0	1	0	stim009_stimuli_original_vehicles_boats_1.png	T	0	0	0	582.867605499923	583.06760379998
139232.5	100	662	18	0	23	14	12	10	0	0	0	stim013_stimuli_original_vehicles_planes_1.png	Q	0	0	0	583.267622599844	583.467614799971
139332.5	100	663	18	0	23	15	5	6	0	0	0	stim006_stimuli_original_animals_fish_2.png	G	0	0	0	583.66763819987	583.867633800022
139432.5	100	664	18	0	23	16	1	7	0	0	0	stim002_stimuli_original_animals_birds_2.png	J	0	0	0	584.067659499822	584.267635699827
139532.5	100	665	18	0	23	17	14	3	0	0	0	stim015_stimuli_original_vehicles_planes_3.png	D	0	0	0	584.467659199843	584.667645999929
139632.5	100	666	18	0	23	18	3	14	0	0	0	stim004_stimuli_original_animals_birds_4.png	V	0	0	0	584.867660299875	585.067663299851
139732.5	100	667	18	0	23	19	7	1	0	0	0	stim008_stimuli_original_animals_fish_4.png	B	0	0	0	585.267678199802	585.46766799991
139832.5	100	668	18	0	23	20	6	5	0	0	0	stim007_stimuli_original_animals_fish_3.png	F	0	0	0	585.667691999814	585.867680399911
139932.5	100	669	18	0	23	21	10	12	0	0	0	stim011_stimuli_original_vehicles_boats_3.png	T	0	0	0	586.06769019994	586.267692899797
140032.5	100	670	18	0	23	22	12	8	1	0	0	stim013_stimuli_original_vehicles_planes_1.png	K	0	0	0	586.467695700005	586.667719699908
140132.5	100	671	18	0	23	23	13	0	0	0	0	stim014_stimuli_original_vehicles_planes_2.png	A	0	0	0	586.867713799933	587.067711299984
140232.5	100	672	18	0	23	24	12	7	1	0	1	stim013_stimuli_original_vehicles_planes_1.png	J	0	0	0	587.267730199965	587.467730899807
140332.5	100	673	18	0	23	25	8	3	0	0	0	stim009_stimuli_original_vehicles_boats_1.png	D	s	587.859570299974	1	587.66773259989	587.867737099994
140432.5	100	674	18	0	23	26	11	6	0	0	0	stim012_stimuli_original_vehicles_boats_4.png	G	0	0	0	588.06775089982	588.267751300009
140532.5	100	675	18	0	23	27	0	15	0	1	0	stim001_stimuli_original_animals_birds_1.png	Y	0	0	0	588.467763799941	588.667765999911
140632.5	100	676	18	0	23	28	12	9	0	0	0	stim013_stimuli_original_vehicles_planes_1.png	L	0	0	0	588.867771799909	589.067767199827
140732.5	100	677	18	0	23	29	4	15	0	1	0	stim005_stimuli_original_animals_fish_1.png	Y	0	0	0	589.267778299982	589.46777280001
140832.5	100	678	18	0	23	30	9	10	0	0	0	stim010_stimuli_original_vehicles_boats_2.png	Q	0	0	0	589.667805299861	589.867780999979
140932.5	100	679	18	0	23	31	15	11	0	0	0	stim016_stimuli_original_vehicles_planes_4.png	R	0	0	0	590.067793599796	590.267799899913
141032.5	100	680	18	0	23	32	2	15	0	0	0	stim003_stimuli_original_animals_birds_3.png	Y	0	0	0	590.467804499902	590.667805699864
141132.5	100	681	18	0	23	33	5	4	0	0	0	stim006_stimuli_original_animals_fish_2.png	E	0	0	0	590.867825799854	591.067827799823
141232.5	100	682	18	0	23	34	14	13	0	0	0	stim015_stimuli_original_vehicles_planes_3.png	U	0	0	0	591.267828400014	591.467841299949
141332.5	100	683	18	0	23	35	1	2	0	0	0	stim002_stimuli_original_animals_birds_2.png	C	0	0	0	591.667852999875	591.867838799953
144220	100	684	19	1	20	0	8	15	0	0	0	stim009_stimuli_original_vehicles_boats_1.png	Y	0	0	0	603.218142699916	603.418155099964
144320	100	685	19	1	20	1	12	2	0	0	0	stim013_stimuli_original_vehicles_planes_1.png	C	0	0	0	603.618148599984	603.818138699979
144420	100	686	19	1	20	2	2	5	0	0	0	stim003_stimuli_original_animals_birds_3.png	F	0	0	0	604.018149700016	604.218172099907
144520	100	687	19	1	20	3	0	7	0	0	0	stim001_stimuli_original_animals_birds_1.png	J	0	0	0	604.418176899897	604.618194299983
144620	100	688	19	1	20	4	9	9	0	0	0	stim010_stimuli_original_vehicles_boats_2.png	L	0	0	0	604.818183699856	605.018181100022
144720	100	689	19	1	20	5	6	13	0	0	0	stim007_stimuli_original_animals_fish_3.png	U	0	0	0	605.218191899825	605.418208200019
144820	100	690	19	1	20	6	4	8	0	0	0	stim005_stimuli_original_animals_fish_1.png	K	0	0	0	605.618192899972	605.818193099927
144920	100	691	19	1	20	7	7	11	0	0	0	stim008_stimuli_original_animals_fish_4.png	R	0	0	0	606.018202399835	606.21820309991
145020	100	692	19	1	20	8	12	0	1	0	0	stim013_stimuli_original_vehicles_planes_1.png	A	0	0	0	606.418230699841	606.618219799828
145120	100	693	19	1	20	9	15	1	0	0	0	stim016_stimuli_original_vehicles_planes_4.png	B	0	0	0	606.818231299985	607.01822489989
145220	100	694	19	1	20	10	12	8	1	1	0	stim013_stimuli_original_vehicles_planes_1.png	K	0	0	0	607.218247500015	607.418267200002
145320	100	695	19	1	20	11	3	6	0	0	0	stim004_stimuli_original_animals_birds_4.png	G	0	0	0	607.618257299997	607.818259499967
145420	100	696	19	1	20	12	13	8	0	1	1	stim014_stimuli_original_vehicles_planes_2.png	K	0	0	0	608.018269799883	608.218266799813
145520	100	697	19	1	20	13	10	14	0	0	0	stim011_stimuli_original_vehicles_boats_3.png	V	s	608.618469599867	1	608.418279999867	608.618281399831
145620	100	698	19	1	20	14	11	3	0	0	0	stim012_stimuli_original_vehicles_boats_4.png	D	0	0	0	608.818289399846	609.018288799794
145720	100	699	19	1	20	15	14	12	0	0	0	stim015_stimuli_original_vehicles_planes_3.png	T	0	0	0	609.218299699947	609.418299600016
145820	100	700	19	1	20	16	1	10	0	0	0	stim002_stimuli_original_animals_birds_2.png	Q	0	0	0	609.618309499929	609.818321299972
145920	100	701	19	1	20	17	5	4	0	0	0	stim006_stimuli_original_animals_fish_2.png	E	0	0	0	610.018321699928	610.21832059999
146020	100	702	19	1	20	18	4	5	0	0	0	stim005_stimuli_original_animals_fish_1.png	F	0	0	0	610.41833549994	610.618331399979
146120	100	703	19	1	20	19	10	1	0	0	0	stim011_stimuli_original_vehicles_boats_3.png	B	0	0	0	610.818342600018	611.018342099851
146220	100	704	19	1	20	20	12	14	0	0	0	stim013_stimuli_original_vehicles_planes_1.png	V	0	0	0	611.21836389997	611.418351699831
146320	100	705	19	1	20	21	3	11	0	0	0	stim004_stimuli_original_animals_birds_4.png	R	0	0	0	611.618363999994	611.818363299826
146420	100	706	19	1	20	22	14	10	0	0	0	stim015_stimuli_original_vehicles_planes_3.png	Q	0	0	0	612.018372099847	612.218389599817
146520	100	707	19	1	20	23	8	13	1	0	0	stim009_stimuli_original_vehicles_boats_1.png	U	0	0	0	612.418386299862	612.618387299823
146620	100	708	19	1	20	24	6	3	0	0	0	stim007_stimuli_original_animals_fish_3.png	D	0	0	0	612.818396499846	613.018407499883
146720	100	709	19	1	20	25	8	12	1	1	0	stim009_stimuli_original_vehicles_boats_1.png	T	0	0	0	613.218405399937	613.418411299819
146820	100	710	19	1	20	26	1	15	0	0	0	stim002_stimuli_original_animals_birds_2.png	Y	0	0	0	613.618419899838	613.818420499796
146920	100	711	19	1	20	27	0	12	0	1	1	stim001_stimuli_original_animals_birds_1.png	T	0	0	0	614.018429199932	614.218428799883
147020	100	712	19	1	20	28	11	7	0	0	0	stim012_stimuli_original_vehicles_boats_4.png	J	0	0	0	614.418430499965	614.618462399812
147120	100	713	19	1	20	29	8	4	0	0	0	stim009_stimuli_original_vehicles_boats_1.png	E	0	0	0	614.818451799918	615.018451499986
147220	100	714	19	1	20	30	13	6	0	0	0	stim014_stimuli_original_vehicles_planes_2.png	G	0	0	0	615.218460999895	615.418463199865
147320	100	715	19	1	20	31	9	9	0	0	0	stim010_stimuli_original_vehicles_boats_2.png	L	0	0	0	615.618469399866	615.818472699961
147420	100	716	19	1	20	32	7	0	0	0	0	stim008_stimuli_original_animals_fish_4.png	A	0	0	0	616.018482399872	616.21848299983
147520	100	717	19	1	20	33	5	2	0	0	0	stim006_stimuli_original_animals_fish_2.png	C	0	0	0	616.418497199891	616.618494299939
147620	100	718	19	1	20	34	2	12	0	0	0	stim003_stimuli_original_animals_birds_3.png	T	0	0	0	616.818505099975	617.018502899911
147720	100	719	19	1	20	35	15	8	0	0	0	stim016_stimuli_original_vehicles_planes_4.png	K	0	0	0	617.21852330002	617.418530799914
149691	100	720	20	0	21	0	4	4	0	0	0	stim005_stimuli_original_animals_fish_1.png	E	0	0	0	625.10206129984	625.302057699999
149791	100	721	20	0	21	1	6	6	0	0	0	stim007_stimuli_original_animals_fish_3.png	G	0	0	0	625.50207139994	625.702072399901
149891	100	722	20	0	21	2	0	10	0	0	0	stim001_stimuli_original_animals_birds_1.png	Q	0	0	0	625.902093000012	626.102083799895
149991	100	723	20	0	21	3	15	3	0	0	0	stim016_stimuli_original_vehicles_planes_4.png	D	0	0	0	626.302090900019	626.502112099901
150091	100	724	20	0	21	4	5	9	0	0	0	stim006_stimuli_original_animals_fish_2.png	L	0	0	0	626.702100099996	626.902102499967
150191	100	725	20	0	21	5	7	8	0	0	0	stim008_stimuli_original_animals_fish_4.png	K	0	0	0	627.102112299995	627.30211199983
150291	100	726	20	0	21	6	12	15	0	0	0	stim013_stimuli_original_vehicles_planes_1.png	Y	0	0	0	627.502124899998	627.702125199838
150391	100	727	20	0	21	7	2	5	0	1	0	stim003_stimuli_original_animals_birds_3.png	F	0	0	0	627.902145299828	628.102135399822
150491	100	728	20	0	21	8	8	14	0	0	0	stim009_stimuli_original_vehicles_boats_1.png	V	0	0	0	628.302145499969	628.502146599814
150591	100	729	20	0	21	9	10	5	1	1	0	stim011_stimuli_original_vehicles_boats_3.png	F	0	0	0	628.702145699877	628.902158299927
150691	100	730	20	0	21	10	1	7	0	0	0	stim002_stimuli_original_animals_birds_2.png	J	0	0	0	629.102174900007	629.30216569989
150791	100	731	20	0	21	11	10	0	1	0	1	stim011_stimuli_original_vehicles_boats_3.png	A	0	0	0	629.502176199807	629.702224500012
150891	100	732	20	0	21	12	13	11	0	0	0	stim014_stimuli_original_vehicles_planes_2.png	R	0	0	0	629.902179499855	630.102198299952
150991	100	733	20	0	21	13	14	5	0	0	0	stim015_stimuli_original_vehicles_planes_3.png	F	0	0	0	630.302198699908	630.502208899939
151091	100	734	20	0	21	14	11	13	0	0	0	stim012_stimuli_original_vehicles_boats_4.png	U	0	0	0	630.702210299904	630.902207499836
151191	100	735	20	0	21	15	9	12	0	0	0	stim010_stimuli_original_vehicles_boats_2.png	T	0	0	0	631.102220499888	631.302246699808
151291	100	736	20	0	21	16	3	2	0	0	0	stim004_stimuli_original_animals_birds_4.png	C	0	0	0	631.502229499863	631.702230599942
151391	100	737	20	0	21	17	10	1	0	0	0	stim011_stimuli_original_vehicles_boats_3.png	B	0	0	0	631.902241499862	632.102244599955
151491	100	738	20	0	21	18	1	10	0	0	0	stim002_stimuli_original_animals_birds_2.png	Q	0	0	0	632.302253799979	632.502252299804
151591	100	739	20	0	21	19	2	3	0	0	0	stim003_stimuli_original_animals_birds_3.png	D	0	0	0	632.702261899831	632.902288099984
151691	100	740	20	0	21	20	12	9	0	0	0	stim013_stimuli_original_vehicles_planes_1.png	L	0	0	0	633.102274099831	633.302271999884
151791	100	741	20	0	21	21	13	11	0	0	0	stim014_stimuli_original_vehicles_planes_2.png	R	0	0	0	633.502285899827	633.702281899983
151891	100	742	20	0	21	22	5	14	0	0	0	stim006_stimuli_original_animals_fish_2.png	V	0	0	0	633.902322199894	634.102293499978
151991	100	743	20	0	21	23	11	13	0	0	0	stim012_stimuli_original_vehicles_boats_4.png	U	0	0	0	634.302304700017	634.502316799946
152091	100	744	20	0	21	24	0	10	0	1	0	stim001_stimuli_original_animals_birds_1.png	Q	0	0	0	634.702322099824	634.90231549996
152191	100	745	20	0	21	25	7	1	0	0	0	stim008_stimuli_original_animals_fish_4.png	B	0	0	0	635.102325999876	635.302327199839
152291	100	746	20	0	21	26	5	10	1	1	0	stim006_stimuli_original_animals_fish_2.png	Q	0	0	0	635.502336699981	635.702336899936
152391	100	747	20	0	21	27	14	8	0	0	0	stim015_stimuli_original_vehicles_planes_3.png	K	0	0	0	635.902347799856	636.10234919982
152491	100	748	20	0	21	28	5	2	1	0	1	stim006_stimuli_original_animals_fish_2.png	C	0	0	0	636.302357899956	636.502372999908
152591	100	749	20	0	21	29	15	12	0	0	0	stim016_stimuli_original_vehicles_planes_4.png	T	0	0	0	636.702370099956	636.902374499943
152691	100	750	20	0	21	30	8	7	0	0	0	stim009_stimuli_original_vehicles_boats_1.png	J	0	0	0	637.102381799836	637.302377299871
152791	100	751	20	0	21	31	9	5	0	0	0	stim010_stimuli_original_vehicles_boats_2.png	F	0	0	0	637.502389799803	637.702390099876
152891	100	752	20	0	21	32	3	15	0	0	0	stim004_stimuli_original_animals_birds_4.png	Y	0	0	0	637.9024015998	638.102403199999
152991	100	753	20	0	21	33	10	0	0	0	0	stim011_stimuli_original_vehicles_boats_3.png	A	0	0	0	638.302422299981	638.502416099887
153091	100	754	20	0	21	34	6	6	0	0	0	stim007_stimuli_original_animals_fish_3.png	G	0	0	0	638.702408900019	638.902422499843
153191	100	755	20	0	21	35	4	4	0	0	0	stim005_stimuli_original_animals_fish_1.png	E	0	0	0	639.102438499918	639.302434199955
154266	100	756	21	1	40	0	4	2	0	0	0	stim005_stimuli_original_animals_fish_1.png	C	0	0	0	643.40256099985	643.602563099936
154366	100	757	21	1	40	1	12	0	0	0	0	stim013_stimuli_original_vehicles_planes_1.png	A	0	0	0	643.802567399805	644.002581299981
154466	100	758	21	1	40	2	3	14	0	0	0	stim004_stimuli_original_animals_birds_4.png	V	0	0	0	644.202581499936	644.402583800023
154566	100	759	21	1	40	3	8	11	0	0	0	stim009_stimuli_original_vehicles_boats_1.png	R	0	0	0	644.602593299933	644.802583499812
154666	100	760	21	1	40	4	5	7	0	0	0	stim006_stimuli_original_animals_fish_2.png	J	0	0	0	645.002591899829	645.202608200023
154766	100	761	21	1	40	5	7	2	0	1	0	stim008_stimuli_original_animals_fish_4.png	C	0	0	0	645.402606599964	645.602612499846
154866	100	762	21	1	40	6	1	6	0	0	0	stim002_stimuli_original_animals_birds_2.png	G	0	0	0	645.802618599962	646.002616900019
154966	100	763	21	1	40	7	11	2	0	1	1	stim012_stimuli_original_vehicles_boats_4.png	C	0	0	0	646.20262519992	646.402627999894
155066	100	764	21	1	40	8	13	15	0	0	0	stim014_stimuli_original_vehicles_planes_2.png	Y	0	0	0	646.602657099953	646.802638099995
155166	100	765	21	1	40	9	1	12	1	0	0	stim002_stimuli_original_animals_birds_2.png	T	s	646.995299899951	1	647.00264750002	647.202646899968
155266	100	766	21	1	40	10	15	9	0	0	0	stim016_stimuli_original_vehicles_planes_4.png	L	0	0	0	647.402663599933	647.602658599848
155366	100	767	21	1	40	11	1	3	1	0	0	stim002_stimuli_original_animals_birds_2.png	D	0	0	0	647.802672899794	648.002669099951
155466	100	768	21	1	40	12	10	10	0	0	0	stim011_stimuli_original_vehicles_boats_3.png	Q	0	0	0	648.202679699985	648.40267849993
155566	100	769	21	1	40	13	9	13	0	0	0	stim010_stimuli_original_vehicles_boats_2.png	U	0	0	0	648.602690199856	648.802690899931
155666	100	770	21	1	40	14	0	4	0	0	0	stim001_stimuli_original_animals_birds_1.png	E	0	0	0	649.002700099954	649.202701499918
155766	100	771	21	1	40	15	2	1	0	0	0	stim003_stimuli_original_animals_birds_3.png	B	0	0	0	649.402712899959	649.602712899912
155866	100	772	21	1	40	16	14	5	0	0	0	stim015_stimuli_original_vehicles_planes_3.png	F	0	0	0	649.802723699948	650.002728499938
155966	100	773	21	1	40	17	6	8	0	0	0	stim007_stimuli_original_animals_fish_3.png	K	0	0	0	650.202732599806	650.402741699945
156066.25	100	774	21	1	40	18	8	6	0	0	0	stim009_stimuli_original_vehicles_boats_1.png	G	0	0	0	650.60274449992	650.802743099863
156166.25	100	775	21	1	40	19	5	14	0	0	0	stim006_stimuli_original_animals_fish_2.png	V	0	0	0	651.002755599795	651.202766199829
156266.25	100	776	21	1	40	20	1	2	0	0	0	stim002_stimuli_original_animals_birds_2.png	C	0	0	0	651.402778299991	651.602770499885
156366.25	100	777	21	1	40	21	4	0	0	0	0	stim005_stimuli_original_animals_fish_1.png	A	0	0	0	651.802774199983	652.002773699816
156466.25	100	778	21	1	40	22	13	9	0	0	0	stim014_stimuli_original_vehicles_planes_2.png	L	0	0	0	652.2027886	652.402786599938
156566.25	100	779	21	1	40	23	10	10	0	0	0	stim011_stimuli_original_vehicles_boats_3.png	Q	0	0	0	652.602778299944	652.802796899807
156666.25	100	780	21	1	40	24	3	1	0	1	0	stim004_stimuli_original_animals_birds_4.png	B	0	0	0	653.002816299908	653.202810399933
156766.25	100	781	21	1	40	25	9	15	0	0	0	stim010_stimuli_original_vehicles_boats_2.png	Y	0	0	0	653.402817499824	653.602824999951
156866.25	100	782	21	1	40	26	12	1	0	1	1	stim013_stimuli_original_vehicles_planes_1.png	B	0	0	0	653.802833699854	654.002839699853
156966.25	100	783	21	1	40	27	15	13	0	0	0	stim016_stimuli_original_vehicles_planes_4.png	U	0	0	0	654.20284929988	654.402839899994
157066.25	100	784	21	1	40	28	2	11	1	0	0	stim003_stimuli_original_animals_birds_3.png	R	0	0	0	654.602851999924	654.802863999968
157166.25	100	785	21	1	40	29	6	1	0	0	0	stim007_stimuli_original_animals_fish_3.png	B	0	0	0	655.002862599911	655.202861399855
157266.25	100	786	21	1	40	30	2	7	1	0	0	stim003_stimuli_original_animals_birds_3.png	J	0	0	0	655.402874100022	655.602876099991
157366.25	100	787	21	1	40	31	7	5	0	0	0	stim008_stimuli_original_animals_fish_4.png	F	0	0	0	655.802881199867	656.002893999917
157466.25	100	788	21	1	40	32	11	8	0	0	0	stim012_stimuli_original_vehicles_boats_4.png	K	0	0	0	656.202894699993	656.402897299966
157566.25	100	789	21	1	40	33	14	3	0	0	0	stim015_stimuli_original_vehicles_planes_3.png	D	0	0	0	656.602905899985	656.80291009997
157666.25	100	790	21	1	40	34	0	12	0	0	0	stim001_stimuli_original_animals_birds_1.png	T	0	0	0	657.00292270002	657.202921299962
157766.25	100	791	21	1	40	35	2	4	0	0	0	stim003_stimuli_original_animals_birds_3.png	E	0	0	0	657.402939599939	657.60293799988
161541.25	100	792	22	0	24	0	6	3	0	0	0	stim007_stimuli_original_animals_fish_3.png	D	0	0	0	672.503329599975	672.703328299802
161641.25	100	793	22	0	24	1	15	5	0	0	0	stim016_stimuli_original_vehicles_planes_4.png	F	0	0	0	672.903342699865	673.103338500019
161741.25	100	794	22	0	24	2	12	2	0	0	0	stim013_stimuli_original_vehicles_planes_1.png	C	0	0	0	673.303348999936	673.503349799896
161841.25	100	795	22	0	24	3	11	14	0	0	0	stim012_stimuli_original_vehicles_boats_4.png	V	0	0	0	673.703358899802	673.903361300007
161941.25	100	796	22	0	24	4	1	9	1	0	0	stim002_stimuli_original_animals_birds_2.png	L	0	0	0	674.103373099817	674.303375399904
162041.25	100	797	22	0	24	5	0	12	0	0	0	stim001_stimuli_original_animals_birds_1.png	T	0	0	0	674.503358799964	674.703380299965
