onset	duration	eventnumber	sequencenumber	condition	streamnumber	stimnumber	objectstimnumber	letterstimnumber	objecttarget	lettertarget	is2back	objectstim	letterstim	response	rt	correct	time_stimon	time_stimoff
29.589	0.2	0	0	0	38	0	15	2	0	0	0	stim016_stimuli_original_vehicles_planes_4.png	C	0	0	0	72.0371657000505	72.237582700036
29.989	0.2	1	0	0	38	1	3	8	0	0	0	stim004_stimuli_original_animals_birds_4.png	K	0	0	0	72.4371694000438	72.6371692000539
30.389	0.2	2	0	0	38	2	10	0	0	0	0	stim011_stimuli_original_vehicles_boats_3.png	A	0	0	0	72.8371803000337	73.0371788000339
30.789	0.2	3	0	0	38	3	11	6	0	0	0	stim012_stimuli_original_vehicles_boats_4.png	G	0	0	0	73.2371908000205	73.4371891000192
31.189	0.2	4	0	0	38	4	4	11	0	0	0	stim005_stimuli_original_animals_fish_1.png	R	0	0	0	73.6372005000012	73.837198000052
31.589	0.2	5	0	0	38	5	14	14	0	0	0	stim015_stimuli_original_vehicles_planes_3.png	V	0	0	0	74.0372109000455	74.237209700048
31.989	0.2	6	0	0	38	6	8	5	1	0	0	stim009_stimuli_original_vehicles_boats_1.png	F	0	0	0	74.4372214000323	74.6372198000317
32.389	0.2	7	0	0	38	7	6	12	0	0	0	stim007_stimuli_original_animals_fish_3.png	T	0	0	0	74.8372442000546	75.0372349000536
32.789	0.2	8	0	0	38	8	8	9	1	0	1	stim009_stimuli_original_vehicles_boats_1.png	L	0	0	0	75.2372413000558	75.4372440000298
33.189	0.2	9	0	0	38	9	5	7	0	0	0	stim006_stimuli_original_animals_fish_2.png	J	0	0	0	75.6372537999996	75.8372520000557
33.589	0.2	10	0	0	38	10	0	5	0	1	0	stim001_stimuli_original_animals_birds_1.png	F	0	0	0	76.0372617000248	76.2372611000319
33.989	0.2	11	0	0	38	11	12	10	0	0	0	stim013_stimuli_original_vehicles_planes_1.png	Q	NaN	76.6290862000315	1	76.4372726000147	76.6372732000309
34.389	0.2	12	0	0	38	12	13	5	0	1	0	stim014_stimuli_original_vehicles_planes_2.png	F	0	0	0	76.8372845000122	77.0372852000291
34.789	0.2	13	0	0	38	13	8	1	0	0	0	stim009_stimuli_original_vehicles_boats_1.png	B	NaN	77.4290974000469	1	77.2372945000534	77.4372927000513
35.19	0.2	14	0	0	38	14	9	4	0	0	0	stim010_stimuli_original_vehicles_boats_2.png	E	0	0	0	77.6374930000165	77.8373070000089
35.589	0.2	15	0	0	38	15	1	13	0	0	0	stim002_stimuli_original_animals_birds_2.png	U	0	0	0	78.0373164000339	78.2373159000417
35.989	0.2	16	0	0	38	16	2	3	0	0	0	stim003_stimuli_original_animals_birds_3.png	D	0	0	0	78.4373258000123	78.6373230000027
36.389	0.2	17	0	0	38	17	7	15	0	0	0	stim008_stimuli_original_animals_fish_4.png	Y	0	0	0	78.8373353000497	79.0373354000039
36.789	0.2	18	0	0	38	18	15	7	0	0	0	stim016_stimuli_original_vehicles_planes_4.png	J	0	0	0	79.2373454000335	79.4373458000482
37.189	0.2	19	0	0	38	19	3	2	0	0	0	stim004_stimuli_original_animals_birds_4.png	C	0	0	0	79.6373558000196	79.8373616000172
37.589	0.2	20	0	0	38	20	13	1	0	0	0	stim014_stimuli_original_vehicles_planes_2.png	B	0	0	0	80.0373675000155	80.2373677000287
37.99	0.2	21	0	0	38	21	4	9	0	0	0	stim005_stimuli_original_animals_fish_1.png	L	0	0	0	80.4373777000001	80.6373818000429
38.39	0.2	22	0	0	38	22	1	8	0	0	0	stim002_stimuli_original_animals_birds_2.png	K	0	0	0	80.8373883000459	81.0373854000354
38.79	0.2	23	0	0	38	23	5	13	1	0	0	stim006_stimuli_original_animals_fish_2.png	U	0	0	0	81.2373985000304	81.4374001000542
39.19	0.2	24	0	0	38	24	10	12	0	0	0	stim011_stimuli_original_vehicles_boats_3.png	T	0	0	0	81.6374086000142	81.8374086000258
39.59	0.2	25	0	0	38	25	5	0	1	0	1	stim006_stimuli_original_animals_fish_2.png	A	0	0	0	82.0374196000048	82.2374176000012
39.99	0.2	26	0	0	38	26	7	5	0	0	0	stim008_stimuli_original_animals_fish_4.png	F	0	0	0	82.437429200043	82.6374497000361
40.39	0.2	27	0	0	38	27	9	8	0	1	0	stim010_stimuli_original_vehicles_boats_2.png	K	0	0	0	82.8374551000306	83.0374404000468
40.79	0.2	28	0	0	38	28	12	6	0	0	0	stim013_stimuli_original_vehicles_planes_1.png	G	0	0	0	83.2374501000158	83.4374494000222
41.19	0.2	29	0	0	38	29	5	8	0	1	0	stim006_stimuli_original_animals_fish_2.png	K	0	0	0	83.6374626000179	83.8374610000174
41.59	0.2	30	0	0	38	30	14	14	0	0	0	stim015_stimuli_original_vehicles_planes_3.png	V	NaN	84.0300144000212	1	84.0374690000317	84.2374715000042
41.99	0.2	31	0	0	38	31	11	4	0	0	0	stim012_stimuli_original_vehicles_boats_4.png	E	0	0	0	84.4374827000429	84.6374803000363
42.39	0.2	32	0	0	38	32	6	11	0	0	0	stim007_stimuli_original_animals_fish_3.png	R	0	0	0	84.8374919000198	85.0374938000459
42.79	0.2	33	0	0	38	33	0	10	0	0	0	stim001_stimuli_original_animals_birds_1.png	Q	0	0	0	85.2375048000249	85.4375031000236
43.19	0.2	34	0	0	38	34	8	3	0	0	0	stim009_stimuli_original_vehicles_boats_1.png	D	0	0	0	85.6375132000539	85.837512500002
43.59	0.2	35	0	0	38	35	2	15	0	0	0	stim003_stimuli_original_animals_birds_3.png	Y	0	0	0	86.0375238000415	86.2375220000395
45.606	0.2	36	1	1	10	0	1	0	0	0	0	stim002_stimuli_original_animals_birds_2.png	A	0	0	0	88.0542800000403	88.2542434000061
46.006	0.2	37	1	1	10	1	13	1	0	0	0	stim014_stimuli_original_vehicles_planes_2.png	B	0	0	0	88.4542560000555	88.6542522000382
46.406	0.2	38	1	1	10	2	6	12	0	0	0	stim007_stimuli_original_animals_fish_3.png	T	0	0	0	88.854263700021	89.0542609000113
46.806	0.2	39	1	1	10	3	9	9	0	0	0	stim010_stimuli_original_vehicles_boats_2.png	L	0	0	0	89.2542798000504	89.454277300043
47.206	0.2	40	1	1	10	4	0	10	0	0	0	stim001_stimuli_original_animals_birds_1.png	Q	0	0	0	89.6542877000174	89.8542860000161
47.606	0.2	41	1	1	10	5	14	3	0	0	0	stim015_stimuli_original_vehicles_planes_3.png	D	0	0	0	90.0542934000259	90.2542963000014
48.006	0.2	42	1	1	10	6	4	8	0	0	0	stim005_stimuli_original_animals_fish_1.png	K	0	0	0	90.4543081000447	90.6543057000381
48.406	0.2	43	1	1	10	7	15	15	1	0	0	stim016_stimuli_original_vehicles_planes_4.png	Y	0	0	0	90.8543171000201	91.0543201000546
48.806	0.2	44	1	1	10	8	11	4	0	0	0	stim012_stimuli_original_vehicles_boats_4.png	E	0	0	0	91.2543262000545	91.4543262000079
49.206	0.2	45	1	1	10	9	15	13	1	1	0	stim016_stimuli_original_vehicles_planes_4.png	U	0	0	0	91.6543371000444	91.8543374000001
49.606	0.2	46	1	1	10	10	7	14	0	0	0	stim008_stimuli_original_animals_fish_4.png	V	0	0	0	92.0543463000213	92.2543475000421
50.006	0.2	47	1	1	10	11	12	13	0	1	1	stim013_stimuli_original_vehicles_planes_1.png	U	0	0	0	92.4543595000287	92.6543589000357
50.406	0.2	48	1	1	10	12	2	2	0	0	0	stim003_stimuli_original_animals_birds_3.png	C	NaN	93.0461632000515	1	92.854369800014	93.0543660000549
50.806	0.2	49	1	1	10	13	5	11	0	0	0	stim006_stimuli_original_animals_fish_2.png	R	0	0	0	93.2543815000099	93.4543990000384
51.206	0.2	50	1	1	10	14	15	13	0	0	0	stim016_stimuli_original_vehicles_planes_4.png	U	0	0	0	93.6543906000443	93.8543909
51.607	0.2	51	1	1	10	15	3	7	0	0	0	stim004_stimuli_original_animals_birds_4.png	J	NaN	94.2461905000382	1	94.054398200009	94.2543999000336
52.007	0.2	52	1	1	10	16	10	6	0	0	0	stim011_stimuli_original_vehicles_boats_3.png	G	0	0	0	94.4544109000126	94.6544227000559
52.407	0.2	53	1	1	10	17	8	5	0	0	0	stim009_stimuli_original_vehicles_boats_1.png	F	0	0	0	94.8544218000025	95.0544193000533
52.807	0.2	54	1	1	10	18	5	8	0	0	0	stim006_stimuli_original_animals_fish_2.png	K	0	0	0	95.2544322000467	95.4544319999986
53.207	0.2	55	1	1	10	19	6	10	0	0	0	stim007_stimuli_original_animals_fish_3.png	Q	0	0	0	95.654442500032	95.8544396000216
53.607	0.2	56	1	1	10	20	7	3	0	0	0	stim008_stimuli_original_animals_fish_4.png	D	0	0	0	96.0544520000112	96.2544540000381
54.007	0.2	57	1	1	10	21	13	15	0	0	0	stim014_stimuli_original_vehicles_planes_2.png	Y	0	0	0	96.4544670000323	96.6544611999998
54.407	0.2	58	1	1	10	22	11	5	0	0	0	stim012_stimuli_original_vehicles_boats_4.png	F	0	0	0	96.8544739000499	97.0544699000311
54.807	0.2	59	1	1	10	23	2	2	0	0	0	stim003_stimuli_original_animals_birds_3.png	C	0	0	0	97.2544865000527	97.4544838000438
55.207	0.2	60	1	1	10	24	13	12	1	0	0	stim014_stimuli_original_vehicles_planes_2.png	T	0	0	0	97.6544953000266	97.8544974000542
55.607	0.2	61	1	1	10	25	14	7	0	0	0	stim015_stimuli_original_vehicles_planes_3.png	J	0	0	0	98.054521300015	98.2545038000098
56.007	0.2	62	1	1	10	26	13	15	1	1	0	stim014_stimuli_original_vehicles_planes_2.png	Y	0	0	0	98.4545139000402	98.6545129000442
56.407	0.2	63	1	1	10	27	4	11	0	0	0	stim005_stimuli_original_animals_fish_1.png	R	0	0	0	98.8545253000339	99.0545214000158
56.807	0.2	64	1	1	10	28	15	15	0	1	1	stim016_stimuli_original_vehicles_planes_4.png	Y	0	0	0	99.2545343000093	99.4545360000338
57.207	0.2	65	1	1	10	29	8	4	0	0	0	stim009_stimuli_original_vehicles_boats_1.png	E	NaN	99.8463507000124	1	99.6545497000334	99.8545475000283
57.607	0.2	66	1	1	10	30	3	14	0	0	0	stim004_stimuli_original_animals_birds_4.png	V	0	0	0	100.054555300041	100.254555899999
58.007	0.2	67	1	1	10	31	10	0	0	0	0	stim011_stimuli_original_vehicles_boats_3.png	A	0	0	0	100.454566900036	100.654566100042
58.407	0.2	68	1	1	10	32	9	9	0	0	0	stim010_stimuli_original_vehicles_boats_2.png	L	0	0	0	100.854579900042	101.054575600021
58.807	0.2	69	1	1	10	33	12	6	0	0	0	stim013_stimuli_original_vehicles_planes_1.png	G	0	0	0	101.254588600015	101.454588200024
59.207	0.2	70	1	1	10	34	1	13	0	0	0	stim002_stimuli_original_animals_birds_2.png	U	0	0	0	101.654602400027	101.854599000013
59.607	0.2	71	1	1	10	35	0	1	0	0	0	stim001_stimuli_original_animals_birds_1.png	B	0	0	0	102.054609300045	102.254609800002
61.707	0.2	72	2	0	29	0	7	2	0	0	0	stim008_stimuli_original_animals_fish_4.png	C	0	0	0	104.154669100011	104.354677000025
62.107	0.2	73	2	0	29	1	6	12	0	0	0	stim007_stimuli_original_animals_fish_3.png	T	0	0	0	104.554688500008	104.754714000039
62.507	0.2	74	2	0	29	2	4	13	0	0	0	stim005_stimuli_original_animals_fish_1.png	U	0	0	0	104.95469600003	105.15468560002
62.907	0.2	75	2	0	29	3	2	3	0	0	0	stim003_stimuli_original_animals_birds_3.png	D	0	0	0	105.354697500006	105.554696200008
63.307	0.2	76	2	0	29	4	3	10	0	0	0	stim004_stimuli_original_animals_birds_4.png	Q	0	0	0	105.75470780005	105.954709400015
63.707	0.2	77	2	0	29	5	14	15	0	0	0	stim015_stimuli_original_vehicles_planes_3.png	Y	0	0	0	106.154715500015	106.354717300041
64.107	0.2	78	2	0	29	6	8	0	0	0	0	stim009_stimuli_original_vehicles_boats_1.png	A	0	0	0	106.554726000002	106.754725300008
64.507	0.2	79	2	0	29	7	5	13	0	1	0	stim006_stimuli_original_animals_fish_2.png	U	0	0	0	106.954736300046	107.154739800026
64.907	0.2	80	2	0	29	8	1	11	0	0	0	stim002_stimuli_original_animals_birds_2.png	R	0	0	0	107.354749500053	107.554748900002
65.307	0.2	81	2	0	29	9	8	13	1	1	0	stim009_stimuli_original_vehicles_boats_1.png	U	0	0	0	107.754761900054	107.954758100037
65.707	0.2	82	2	0	29	10	12	14	0	0	0	stim013_stimuli_original_vehicles_planes_1.png	V	0	0	0	108.154767400003	108.354766100005
66.107	0.2	83	2	0	29	11	8	1	1	0	1	stim009_stimuli_original_vehicles_boats_1.png	B	0	0	0	108.554778800055	108.75478030002
66.507	0.2	84	2	0	29	12	9	8	0	0	0	stim010_stimuli_original_vehicles_boats_2.png	K	0	0	0	108.954791600001	109.15478750004
66.907	0.2	85	2	0	29	13	11	5	0	0	0	stim012_stimuli_original_vehicles_boats_4.png	F	0	0	0	109.35480000003	109.554799600039
67.307	0.2	86	2	0	29	14	10	9	0	0	0	stim011_stimuli_original_vehicles_boats_3.png	L	0	0	0	109.754810400016	109.954809600022
67.707	0.2	87	2	0	29	15	0	7	0	0	0	stim001_stimuli_original_animals_birds_1.png	J	0	0	0	110.154820300057	110.354820400011
68.107	0.2	88	2	0	29	16	15	6	0	0	0	stim016_stimuli_original_vehicles_planes_4.png	G	0	0	0	110.554831300047	110.754831500002
68.507	0.2	89	2	0	29	17	13	4	0	0	0	stim014_stimuli_original_vehicles_planes_2.png	E	0	0	0	110.954841600033	111.154842500051
68.907	0.2	90	2	0	29	18	4	13	0	0	0	stim005_stimuli_original_animals_fish_1.png	U	0	0	0	111.354850300006	111.554852500034
69.307	0.2	91	2	0	29	19	6	15	0	0	0	stim007_stimuli_original_animals_fish_3.png	Y	0	0	0	111.754863300011	111.954863500025
69.707	0.2	92	2	0	29	20	7	0	0	0	0	stim008_stimuli_original_animals_fish_4.png	A	0	0	0	112.154875200009	112.354873600008
70.107	0.2	93	2	0	29	21	9	10	0	0	0	stim010_stimuli_original_vehicles_boats_2.png	Q	0	0	0	112.554884300043	112.754884000053
70.507	0.2	94	2	0	29	22	5	11	0	0	0	stim006_stimuli_original_animals_fish_2.png	R	0	0	0	112.954894500028	113.154894900043
70.907	0.2	95	2	0	29	23	8	9	0	0	0	stim009_stimuli_original_vehicles_boats_1.png	L	0	0	0	113.354904600012	113.554904400022
71.307	0.2	96	2	0	29	24	1	8	0	1	0	stim002_stimuli_original_animals_birds_2.png	K	0	0	0	113.754914800054	113.954915900016
71.707	0.2	97	2	0	29	25	14	12	0	0	0	stim015_stimuli_original_vehicles_planes_3.png	T	0	0	0	114.154924400034	114.354925300053
72.107	0.2	98	2	0	29	26	13	8	1	1	0	stim014_stimuli_original_vehicles_planes_2.png	K	0	0	0	114.554939900001	114.754934900033
72.507	0.2	99	2	0	29	27	11	1	0	0	0	stim012_stimuli_original_vehicles_boats_4.png	B	NaN	114.947516400018	0	114.954949300038	115.154945300019
72.907	0.2	100	2	0	29	28	13	5	1	0	1	stim014_stimuli_original_vehicles_planes_2.png	F	0	0	0	115.354958000011	115.554957500019
73.307	0.2	101	2	0	29	29	0	8	0	0	0	stim001_stimuli_original_animals_birds_1.png	K	0	0	0	115.754968500056	115.954981300049
73.707	0.2	102	2	0	29	30	15	14	0	0	0	stim016_stimuli_original_vehicles_planes_4.png	V	NaN	116.346770600008	1	116.154977100028	116.354982500023
74.107	0.2	103	2	0	29	31	10	3	0	0	0	stim011_stimuli_original_vehicles_boats_3.png	D	0	0	0	116.554989700031	116.754987800028
74.507	0.2	104	2	0	29	32	3	2	0	0	0	stim004_stimuli_original_animals_birds_4.png	C	0	0	0	116.955000100017	117.15499760001
74.907	0.2	105	2	0	29	33	13	4	0	0	0	stim014_stimuli_original_vehicles_planes_2.png	E	0	0	0	117.355009899999	117.555008399999
75.307	0.2	106	2	0	29	34	12	6	0	0	0	stim013_stimuli_original_vehicles_planes_1.png	G	0	0	0	117.75501990004	117.955045900017
75.707	0.2	107	2	0	29	35	2	7	0	0	0	stim003_stimuli_original_animals_birds_3.png	J	0	0	0	118.155029800022	118.355030000035
77.89	0.2	108	3	1	22	0	2	6	0	0	0	stim003_stimuli_original_animals_birds_3.png	G	0	0	0	120.338425000024	120.538423100021
78.29	0.2	109	3	1	22	1	15	0	0	0	0	stim016_stimuli_original_vehicles_planes_4.png	A	0	0	0	120.738430000027	120.938431300048
78.69	0.2	110	3	1	22	2	13	2	0	0	0	stim014_stimuli_original_vehicles_planes_2.png	C	0	0	0	121.138442800031	121.338446400012
79.09	0.2	111	3	1	22	3	8	1	0	0	0	stim009_stimuli_original_vehicles_boats_1.png	B	0	0	0	121.538453500019	121.738451300014
79.49	0.2	112	3	1	22	4	1	11	0	0	0	stim002_stimuli_original_animals_birds_2.png	R	0	0	0	121.938462800055	122.138462800009
79.89	0.2	113	3	1	22	5	5	3	0	0	0	stim006_stimuli_original_animals_fish_2.png	D	0	0	0	122.338472100033	122.538485800033
80.291	0.2	114	3	1	22	6	3	5	0	1	0	stim004_stimuli_original_animals_birds_4.png	F	0	0	0	122.738485400041	122.938481500023
80.691	0.2	115	3	1	22	7	9	14	0	0	0	stim010_stimuli_original_vehicles_boats_2.png	V	0	0	0	123.138493900013	123.338491700008
81.091	0.2	116	3	1	22	8	10	5	0	1	1	stim011_stimuli_original_vehicles_boats_3.png	F	0	0	0	123.538506300014	123.73850180005
81.491	0.2	117	3	1	22	9	15	7	1	0	0	stim016_stimuli_original_vehicles_planes_4.png	J	0	0	0	123.938513600035	124.138513100042
81.891	0.2	118	3	1	22	10	7	8	0	0	0	stim008_stimuli_original_animals_fish_4.png	K	0	0	0	124.338525000028	124.538525400043
82.291	0.2	119	3	1	22	11	15	4	1	0	0	stim016_stimuli_original_vehicles_planes_4.png	E	0	0	0	124.738535100012	124.938534900022
82.691	0.2	120	3	1	22	12	12	12	0	0	0	stim013_stimuli_original_vehicles_planes_1.png	T	0	0	0	125.138544300047	125.338545700011
83.091	0.2	121	3	1	22	13	14	5	0	0	0	stim015_stimuli_original_vehicles_planes_3.png	F	0	0	0	125.538555900042	125.73855540005
83.491	0.2	122	3	1	22	14	4	9	0	0	0	stim005_stimuli_original_animals_fish_1.png	L	NaN	126.130373799999	0	125.938565700024	126.138569800009
83.891	0.2	123	3	1	22	15	0	15	0	0	0	stim001_stimuli_original_animals_birds_1.png	Y	0	0	0	126.338578100025	126.53857850004
84.291	0.2	124	3	1	22	16	11	13	0	0	0	stim012_stimuli_original_vehicles_boats_4.png	U	0	0	0	126.738588700013	126.938584900054
84.691	0.2	125	3	1	22	17	6	10	0	0	0	stim007_stimuli_original_animals_fish_3.png	Q	0	0	0	127.138598500052	127.338597400056
85.091	0.2	126	3	1	22	18	10	6	0	0	0	stim011_stimuli_original_vehicles_boats_3.png	G	0	0	0	127.538609200041	127.738607400039
85.491	0.2	127	3	1	22	19	13	11	0	0	0	stim014_stimuli_original_vehicles_planes_2.png	R	0	0	0	127.93862000003	128.138619200035
85.891	0.2	128	3	1	22	20	15	0	0	0	0	stim016_stimuli_original_vehicles_planes_4.png	A	0	0	0	128.338628500002	128.538631400035
86.291	0.2	129	3	1	22	21	9	4	0	0	0	stim010_stimuli_original_vehicles_boats_2.png	E	0	0	0	128.738643000019	128.938639400003
86.691	0.2	130	3	1	22	22	5	14	0	0	0	stim006_stimuli_original_animals_fish_2.png	V	0	0	0	129.138651000045	129.338649100042
87.091	0.2	131	3	1	22	23	12	12	0	0	0	stim013_stimuli_original_vehicles_planes_1.png	T	0	0	0	129.538662800041	129.7386788
87.491	0.2	132	3	1	22	24	4	15	0	1	0	stim005_stimuli_original_animals_fish_1.png	Y	0	0	0	129.938672100019	130.138669600012
87.891	0.2	133	3	1	22	25	8	7	0	0	0	stim009_stimuli_original_vehicles_boats_1.png	J	0	0	0	130.338681699999	130.538681500009
88.291	0.2	134	3	1	22	26	7	15	0	1	1	stim008_stimuli_original_animals_fish_4.png	Y	0	0	0	130.738691200037	130.938689600036
88.691	0.2	135	3	1	22	27	5	10	1	0	0	stim006_stimuli_original_animals_fish_2.png	Q	NaN	131.330495500006	1	131.138700500014	131.338704500056
89.091	0.2	136	3	1	22	28	14	9	0	0	0	stim015_stimuli_original_vehicles_planes_3.png	L	0	0	0	131.538713900023	131.738712800026
89.491	0.2	137	3	1	22	29	5	3	1	0	0	stim006_stimuli_original_animals_fish_2.png	D	0	0	0	131.938723700005	132.138727200043
89.891	0.2	138	3	1	22	30	3	5	0	0	0	stim004_stimuli_original_animals_birds_4.png	F	0	0	0	132.338775500015	132.5387491
90.291	0.2	139	3	1	22	31	11	1	0	0	0	stim012_stimuli_original_vehicles_boats_4.png	B	0	0	0	132.738757400017	132.938761000056
90.691	0.2	140	3	1	22	32	1	8	0	0	0	stim002_stimuli_original_animals_birds_2.png	K	0	0	0	133.138765600044	133.338767800014
91.091	0.2	141	3	1	22	33	2	13	0	0	0	stim003_stimuli_original_animals_birds_3.png	U	0	0	0	133.538778100046	133.738776500046
91.491	0.2	142	3	1	22	34	0	15	0	0	0	stim001_stimuli_original_animals_birds_1.png	Y	0	0	0	133.938790700049	134.1387904
91.891	0.2	143	3	1	22	35	6	2	0	0	0	stim007_stimuli_original_animals_fish_3.png	C	NaN	134.530598000041	0	134.338804700004	134.538798500027
93.958	0.2	144	4	0	2	0	9	5	0	0	0	stim010_stimuli_original_vehicles_boats_2.png	F	0	0	0	136.405538800056	136.605533400027
94.358	0.2	145	4	0	2	1	5	12	0	0	0	stim006_stimuli_original_animals_fish_2.png	T	0	0	0	136.805547200027	137.005544300016
94.758	0.2	146	4	0	2	2	7	3	0	0	0	stim008_stimuli_original_animals_fish_4.png	D	0	0	0	137.205550800019	137.405556900019
95.158	0.2	147	4	0	2	3	2	11	0	0	0	stim003_stimuli_original_animals_birds_3.png	R	0	0	0	137.605562400015	137.805567400006
95.558	0.2	148	4	0	2	4	14	13	0	0	0	stim015_stimuli_original_vehicles_planes_3.png	U	0	0	0	138.005571300047	138.205574900028
95.958	0.2	149	4	0	2	5	4	14	0	0	0	stim005_stimuli_original_animals_fish_1.png	V	0	0	0	138.40558630001	138.605584600009
96.358	0.2	150	4	0	2	6	13	0	0	0	0	stim014_stimuli_original_vehicles_planes_2.png	A	0	0	0	138.805594500038	139.005584700033
96.758	0.2	151	4	0	2	7	8	10	0	0	0	stim009_stimuli_original_vehicles_boats_1.png	Q	0	0	0	139.205608900054	139.405615100055
97.158	0.2	152	4	0	2	8	15	1	0	0	0	stim016_stimuli_original_vehicles_planes_4.png	B	0	0	0	139.605625000026	139.805617200036
97.558	0.2	153	4	0	2	9	14	6	1	0	0	stim015_stimuli_original_vehicles_planes_3.png	G	0	0	0	140.005630800035	140.205627900024
97.958	0.2	154	4	0	2	10	11	8	0	0	0	stim012_stimuli_original_vehicles_boats_4.png	K	0	0	0	140.405644400045	140.605637500004
98.358	0.2	155	4	0	2	11	14	4	1	0	1	stim015_stimuli_original_vehicles_planes_3.png	E	0	0	0	140.805648500042	141.00563520001
98.758	0.2	156	4	0	2	12	6	10	0	1	0	stim007_stimuli_original_animals_fish_3.png	Q	0	0	0	141.205658400024	141.405660800054
99.158	0.2	157	4	0	2	13	3	9	0	0	0	stim004_stimuli_original_animals_birds_4.png	L	0	0	0	141.605654300016	141.805666700006
99.558	0.2	158	4	0	2	14	10	10	0	1	0	stim011_stimuli_original_vehicles_boats_3.png	Q	NaN	141.998215900036	1	142.005657700007	142.205667000031
99.958	0.2	159	4	0	2	15	12	15	0	0	0	stim013_stimuli_original_vehicles_planes_1.png	Y	0	0	0	142.405692	142.605688200041
100.358	0.2	160	4	0	2	16	1	2	0	0	0	stim002_stimuli_original_animals_birds_2.png	C	0	0	0	142.805708000029	143.005703300005
100.758	0.2	161	4	0	2	17	0	7	0	0	0	stim001_stimuli_original_animals_birds_1.png	J	0	0	0	143.205713000032	143.405714799999
101.158	0.2	162	4	0	2	18	7	0	0	0	0	stim008_stimuli_original_animals_fish_4.png	A	0	0	0	143.605724300025	143.805727600004
101.558	0.2	163	4	0	2	19	2	1	0	0	0	stim003_stimuli_original_animals_birds_3.png	B	0	0	0	144.00571550004	144.205718200014
101.958	0.2	164	4	0	2	20	15	12	0	0	0	stim016_stimuli_original_vehicles_planes_4.png	T	0	0	0	144.405719200033	144.605718800041
102.358	0.2	165	4	0	2	21	10	10	1	0	0	stim011_stimuli_original_vehicles_boats_3.png	Q	0	0	0	144.80572970002	145.005728400021
102.758	0.2	166	4	0	2	22	9	3	0	0	0	stim010_stimuli_original_vehicles_boats_2.png	D	0	0	0	145.205739500001	145.405767400051
103.158	0.2	167	4	0	2	23	10	6	1	0	1	stim011_stimuli_original_vehicles_boats_3.png	G	0	0	0	145.605752000003	145.805761100026
103.558	0.2	168	4	0	2	24	4	14	0	1	0	stim005_stimuli_original_animals_fish_1.png	V	0	0	0	146.005787000002	146.205774200032
103.958	0.2	169	4	0	2	25	8	11	0	0	0	stim009_stimuli_original_vehicles_boats_1.png	R	0	0	0	146.405783200054	146.605796200049
104.358	0.2	170	4	0	2	26	6	14	0	1	0	stim007_stimuli_original_animals_fish_3.png	V	0	0	0	146.805792100029	147.005790800031
104.758	0.2	171	4	0	2	27	1	15	0	0	0	stim002_stimuli_original_animals_birds_2.png	Y	0	0	0	147.205806800048	147.405804400041
105.158	0.2	172	4	0	2	28	10	8	0	0	0	stim011_stimuli_original_vehicles_boats_3.png	K	0	0	0	147.60581410001	147.805814500025
105.558	0.2	173	4	0	2	29	0	13	0	0	0	stim001_stimuli_original_animals_birds_1.png	U	0	0	0	148.005842200015	148.205822200049
105.958	0.2	174	4	0	2	30	14	4	0	0	0	stim015_stimuli_original_vehicles_planes_3.png	E	0	0	0	148.405838300008	148.605844800011
106.358	0.2	175	4	0	2	31	13	14	0	0	0	stim014_stimuli_original_vehicles_planes_2.png	V	0	0	0	148.805846400035	149.005843100022
106.758	0.2	176	4	0	2	32	11	2	0	0	0	stim012_stimuli_original_vehicles_boats_4.png	C	0	0	0	149.205856400018	149.405858600046
107.158	0.2	177	4	0	2	33	3	7	0	0	0	stim004_stimuli_original_animals_birds_4.png	J	0	0	0	149.605865900056	149.805862900044
107.558	0.2	178	4	0	2	34	12	5	0	0	0	stim013_stimuli_original_vehicles_planes_1.png	F	0	0	0	150.005864300008	150.205894400016
107.958	0.2	179	4	0	2	35	5	9	0	0	0	stim006_stimuli_original_animals_fish_2.png	L	0	0	0	150.40588960005	150.605898300011
110.391	0.2	180	5	1	18	0	7	5	0	0	0	stim008_stimuli_original_animals_fish_4.png	F	0	0	0	152.839290300035	153.039307400002
110.791	0.2	181	5	1	18	1	1	12	0	0	0	stim002_stimuli_original_animals_birds_2.png	T	0	0	0	153.239293400024	153.439294100041
111.191	0.2	182	5	1	18	2	11	8	0	0	0	stim012_stimuli_original_vehicles_boats_4.png	K	0	0	0	153.639323500043	153.839293100056
111.591	0.2	183	5	1	18	3	4	0	0	0	0	stim005_stimuli_original_animals_fish_1.png	A	0	0	0	154.039316400012	154.239307000011
111.991	0.2	184	5	1	18	4	8	9	0	0	0	stim009_stimuli_original_vehicles_boats_1.png	L	0	0	0	154.439326799999	154.639322900039
112.391	0.2	185	5	1	18	5	13	10	0	0	0	stim014_stimuli_original_vehicles_planes_2.png	Q	NaN	155.031131100026	0	154.839335000026	155.039332600019
112.791	0.2	186	5	1	18	6	12	15	0	0	0	stim013_stimuli_original_vehicles_planes_1.png	Y	0	0	0	155.239344700007	155.439345700026
113.191	0.2	187	5	1	18	7	15	6	1	0	0	stim016_stimuli_original_vehicles_planes_4.png	G	0	0	0	155.639382400026	155.839355100004
113.591	0.2	188	5	1	18	8	14	13	0	0	0	stim015_stimuli_original_vehicles_planes_3.png	U	0	0	0	156.039366400044	156.239388100046
113.991	0.2	189	5	1	18	9	15	3	1	0	0	stim016_stimuli_original_vehicles_planes_4.png	D	0	0	0	156.439377400035	156.639377400046
114.391	0.2	190	5	1	18	10	2	2	0	0	0	stim003_stimuli_original_animals_birds_3.png	C	0	0	0	156.839389700035	157.039390800055
114.791	0.2	191	5	1	18	11	6	15	0	1	0	stim007_stimuli_original_animals_fish_3.png	Y	0	0	0	157.239397100057	157.439397500013
115.191	0.2	192	5	1	18	12	9	1	0	0	0	stim010_stimuli_original_vehicles_boats_2.png	B	0	0	0	157.639411800017	157.839406000043
115.591	0.2	193	5	1	18	13	15	15	0	1	1	stim016_stimuli_original_vehicles_planes_4.png	Y	0	0	0	158.039418000029	158.239435399999
115.991	0.2	194	5	1	18	14	10	4	0	0	0	stim011_stimuli_original_vehicles_boats_3.png	E	NaN	158.432045700029	1	158.439431100036	158.639430000039
116.391	0.2	195	5	1	18	15	5	11	0	0	0	stim006_stimuli_original_animals_fish_2.png	R	0	0	0	158.839453000051	159.039438700012
116.791	0.2	196	5	1	18	16	0	14	0	0	0	stim001_stimuli_original_animals_birds_1.png	V	0	0	0	159.239453300019	159.439452600025
117.191	0.2	197	5	1	18	17	3	7	0	0	0	stim004_stimuli_original_animals_birds_4.png	J	0	0	0	159.639462300052	159.83945910004
117.591	0.2	198	5	1	18	18	7	3	0	0	0	stim008_stimuli_original_animals_fish_4.png	D	0	0	0	160.039470000018	160.239471300039
117.991	0.2	199	5	1	18	19	14	0	0	0	0	stim015_stimuli_original_vehicles_planes_3.png	A	0	0	0	160.439483100025	160.639481700025
118.391	0.2	200	5	1	18	20	11	5	0	0	0	stim012_stimuli_original_vehicles_boats_4.png	F	0	0	0	160.839503000025	161.039491300005
118.791	0.2	201	5	1	18	21	4	10	0	0	0	stim005_stimuli_original_animals_fish_1.png	Q	0	0	0	161.23952100001	161.43951180001
119.191	0.2	202	5	1	18	22	15	15	1	0	0	stim016_stimuli_original_vehicles_planes_4.png	Y	0	0	0	161.639533100009	161.839520700043
119.591	0.2	203	5	1	18	23	1	9	0	0	0	stim002_stimuli_original_animals_birds_2.png	L	0	0	0	162.039543300052	162.239541700052
119.991	0.2	204	5	1	18	24	15	6	1	0	0	stim016_stimuli_original_vehicles_planes_4.png	G	0	0	0	162.439557300007	162.63955870003
120.391	0.2	205	5	1	18	25	2	2	0	0	0	stim003_stimuli_original_animals_birds_3.png	C	0	0	0	162.839563000016	163.039567800006
120.791	0.2	206	5	1	18	26	3	15	0	1	0	stim004_stimuli_original_animals_birds_4.png	Y	0	0	0	163.239562000032	163.439577200043
121.192	0.2	207	5	1	18	27	13	14	0	0	0	stim014_stimuli_original_vehicles_planes_2.png	V	0	0	0	163.639584000048	163.839585600013
121.592	0.2	208	5	1	18	28	6	15	0	1	1	stim007_stimuli_original_animals_fish_3.png	Y	0	0	0	164.039594800037	164.239593900042
121.992	0.2	209	5	1	18	29	15	12	0	0	0	stim016_stimuli_original_vehicles_planes_4.png	T	0	0	0	164.439604200015	164.639605300035
122.392	0.2	210	5	1	18	30	10	13	0	0	0	stim011_stimuli_original_vehicles_boats_3.png	U	0	0	0	164.839620700048	165.039609900035
122.792	0.2	211	5	1	18	31	9	8	0	0	0	stim010_stimuli_original_vehicles_boats_2.png	K	0	0	0	165.23962290003	165.439617700002
123.192	0.2	212	5	1	18	32	0	4	0	0	0	stim001_stimuli_original_animals_birds_1.png	E	0	0	0	165.639629200043	165.839627700043
123.592	0.2	213	5	1	18	33	8	11	0	0	0	stim009_stimuli_original_vehicles_boats_1.png	R	0	0	0	166.039640600036	166.239639700041
123.992	0.2	214	5	1	18	34	12	1	0	0	0	stim013_stimuli_original_vehicles_planes_1.png	B	0	0	0	166.439651400025	166.639639100002
124.392	0.2	215	5	1	18	35	5	7	0	0	0	stim006_stimuli_original_animals_fish_2.png	J	0	0	0	166.839661900012	167.039662200026
127.392	0.2	216	6	0	20	0	10	12	0	0	0	stim011_stimuli_original_vehicles_boats_3.png	T	0	0	0	169.839745900012	170.039741500048
127.792	0.2	217	6	0	20	1	9	10	0	0	0	stim010_stimuli_original_vehicles_boats_2.png	Q	0	0	0	170.239762200043	170.439750300022
128.192	0.2	218	6	0	20	2	14	7	0	0	0	stim015_stimuli_original_vehicles_planes_3.png	J	0	0	0	170.639762700011	170.839764600038
128.592	0.2	219	6	0	20	3	13	6	0	0	0	stim014_stimuli_original_vehicles_planes_2.png	G	0	0	0	171.039763600042	171.239773700014
128.992	0.2	220	6	0	20	4	15	8	0	0	0	stim016_stimuli_original_vehicles_planes_4.png	K	0	0	0	171.43978330004	171.639781300037
129.392	0.2	221	6	0	20	5	2	15	0	0	0	stim003_stimuli_original_animals_birds_3.png	Y	0	0	0	171.839802700037	172.039799200022
129.792	0.2	222	6	0	20	6	1	5	0	0	0	stim002_stimuli_original_animals_birds_2.png	F	0	0	0	172.239803300006	172.439803200017
130.192	0.2	223	6	0	20	7	9	4	1	0	0	stim010_stimuli_original_vehicles_boats_2.png	E	0	0	0	172.639815000002	172.839815100015
130.592	0.2	224	6	0	20	8	3	2	0	0	0	stim004_stimuli_original_animals_birds_4.png	C	0	0	0	173.039829200017	173.239825000055
130.992	0.2	225	6	0	20	9	9	13	1	1	1	stim010_stimuli_original_vehicles_boats_2.png	U	0	0	0	173.43983550003	173.639837800001
131.392	0.2	226	6	0	20	10	11	0	0	0	0	stim012_stimuli_original_vehicles_boats_4.png	A	0	0	0	173.839850500051	174.03984620003
131.792	0.2	227	6	0	20	11	4	13	0	1	0	stim005_stimuli_original_animals_fish_1.png	U	0	0	0	174.239848500001	174.439858100028
132.192	0.2	228	6	0	20	12	7	1	0	0	0	stim008_stimuli_original_animals_fish_4.png	B	0	0	0	174.639867000049	174.839869600022
132.592	0.2	229	6	0	20	13	5	9	0	0	0	stim006_stimuli_original_animals_fish_2.png	L	0	0	0	175.039881300007	175.239877400047
132.992	0.2	230	6	0	20	14	0	3	0	0	0	stim001_stimuli_original_animals_birds_1.png	D	0	0	0	175.439890200039	175.639888500038
133.392	0.2	231	6	0	20	15	8	11	0	0	0	stim009_stimuli_original_vehicles_boats_1.png	R	0	0	0	175.839897500002	176.039905800018
133.792	0.2	232	6	0	20	16	6	14	0	0	0	stim007_stimuli_original_animals_fish_3.png	V	0	0	0	176.239915200043	176.439878600009
134.192	0.2	233	6	0	20	17	12	13	0	0	0	stim013_stimuli_original_vehicles_planes_1.png	U	0	0	0	176.639929199999	176.8399278
134.592	0.2	234	6	0	20	18	13	12	0	0	0	stim014_stimuli_original_vehicles_planes_2.png	T	0	0	0	177.039960400027	177.23993630003
134.992	0.2	235	6	0	20	19	14	6	0	0	0	stim015_stimuli_original_vehicles_planes_3.png	G	0	0	0	177.439946300001	177.639943700051
135.392	0.2	236	6	0	20	20	11	8	0	0	0	stim012_stimuli_original_vehicles_boats_4.png	K	0	0	0	177.839942200051	178.039967300021
135.792	0.2	237	6	0	20	21	3	0	0	0	0	stim004_stimuli_original_animals_birds_4.png	A	0	0	0	178.239969200047	178.439966600039
136.192	0.2	238	6	0	20	22	9	5	0	0	0	stim010_stimuli_original_vehicles_boats_2.png	F	0	0	0	178.639950700046	178.839979400043
136.592	0.2	239	6	0	20	23	1	7	0	0	0	stim002_stimuli_original_animals_birds_2.png	J	0	0	0	179.039987900003	179.239999800047
136.992	0.2	240	6	0	20	24	13	4	1	0	0	stim014_stimuli_original_vehicles_planes_2.png	E	0	0	0	179.43999330001	179.639991100004
137.392	0.2	241	6	0	20	25	0	11	0	0	0	stim001_stimuli_original_animals_birds_1.png	R	0	0	0	179.839999800024	180.040003000002
137.792	0.2	242	6	0	20	26	13	9	1	1	1	stim014_stimuli_original_vehicles_planes_2.png	L	0	0	0	180.240013000031	180.440022100054
138.192	0.2	243	6	0	20	27	2	3	0	0	0	stim003_stimuli_original_animals_birds_3.png	D	0	0	0	180.640022000007	180.840021300013
138.592	0.2	244	6	0	20	28	4	9	0	1	0	stim005_stimuli_original_animals_fish_1.png	L	0	0	0	181.040033700003	181.240033000009
138.992	0.2	245	6	0	20	29	5	1	0	0	0	stim006_stimuli_original_animals_fish_2.png	B	0	0	0	181.440042800037	181.64005060005
139.392	0.2	246	6	0	20	30	15	2	0	0	0	stim016_stimuli_original_vehicles_planes_4.png	C	0	0	0	181.840066400007	182.040053200035
139.792	0.2	247	6	0	20	31	8	15	0	0	0	stim009_stimuli_original_vehicles_boats_1.png	Y	0	0	0	182.240069400053	182.440063400019
140.192	0.2	248	6	0	20	32	6	13	0	0	0	stim007_stimuli_original_animals_fish_3.png	U	0	0	0	182.640075400006	182.840075100015
140.592	0.2	249	6	0	20	33	7	14	0	0	0	stim008_stimuli_original_animals_fish_4.png	V	0	0	0	183.040086400055	183.24008290004
140.992	0.2	250	6	0	20	34	10	9	0	0	0	stim011_stimuli_original_vehicles_boats_3.png	L	0	0	0	183.440093400015	183.640093400027
141.392	0.2	251	6	0	20	35	12	10	0	0	0	stim013_stimuli_original_vehicles_planes_1.png	Q	0	0	0	183.840109100041	184.040105300024
143.225	0.2	252	7	1	15	0	7	6	0	0	0	stim008_stimuli_original_animals_fish_4.png	G	0	0	0	185.673471400049	185.873463800002
143.625	0.2	253	7	1	15	1	14	10	0	0	0	stim015_stimuli_original_vehicles_planes_3.png	Q	0	0	0	186.073475400044	186.273473700043
144.025	0.2	254	7	1	15	2	13	9	0	0	0	stim014_stimuli_original_vehicles_planes_2.png	L	0	0	0	186.47348450002	186.673509100045
144.425	0.2	255	7	1	15	3	3	11	0	0	0	stim004_stimuli_original_animals_birds_4.png	R	0	0	0	186.873496400018	187.073494700016
144.825	0.2	256	7	1	15	4	9	14	0	0	0	stim010_stimuli_original_vehicles_boats_2.png	V	0	0	0	187.273536200053	187.473505000002
145.225	0.2	257	7	1	15	5	12	15	0	0	0	stim013_stimuli_original_vehicles_planes_1.png	Y	0	0	0	187.673519100004	187.873538100044
145.625	0.2	258	7	1	15	6	2	2	1	0	0	stim003_stimuli_original_animals_birds_3.png	C	0	0	0	188.073527800036	188.273525900033
146.025	0.2	259	7	1	15	7	8	13	0	0	0	stim009_stimuli_original_vehicles_boats_1.png	U	0	0	0	188.473537000013	188.673536800023
146.425	0.2	260	7	1	15	8	2	12	1	1	0	stim003_stimuli_original_animals_birds_3.png	T	0	0	0	188.873549500015	189.073549700028
146.825	0.2	261	7	1	15	9	4	0	0	0	0	stim005_stimuli_original_animals_fish_1.png	A	0	0	0	189.273587500036	189.473562400031
147.225	0.2	262	7	1	15	10	11	12	0	1	1	stim012_stimuli_original_vehicles_boats_4.png	T	0	0	0	189.673569000035	189.873583900044
147.625	0.2	263	7	1	15	11	15	4	0	0	0	stim016_stimuli_original_vehicles_planes_4.png	E	0	0	0	190.073580900033	190.273597400053
148.025	0.2	264	7	1	15	12	2	5	0	0	0	stim003_stimuli_original_animals_birds_3.png	F	0	0	0	190.473589500005	190.673589000013
148.425	0.2	265	7	1	15	13	1	8	0	0	0	stim002_stimuli_original_animals_birds_2.png	K	0	0	0	190.873603100015	191.073598200048
148.825	0.2	266	7	1	15	14	0	3	0	0	0	stim001_stimuli_original_animals_birds_1.png	D	0	0	0	191.273615800019	191.473610900051
149.225	0.2	267	7	1	15	15	5	7	0	0	0	stim006_stimuli_original_animals_fish_2.png	J	0	0	0	191.673621700029	191.873640100006
149.626	0.2	268	7	1	15	16	6	12	0	0	0	stim007_stimuli_original_animals_fish_3.png	T	0	0	0	192.073633400025	192.273630700016
150.026	0.2	269	7	1	15	17	10	1	0	0	0	stim011_stimuli_original_vehicles_boats_3.png	B	0	0	0	192.473661100026	192.673652200028
150.426	0.2	270	7	1	15	18	1	10	0	0	0	stim002_stimuli_original_animals_birds_2.png	Q	0	0	0	192.873652500042	193.073651000042
150.826	0.2	271	7	1	15	19	12	6	0	0	0	stim013_stimuli_original_vehicles_planes_1.png	G	0	0	0	193.27366310003	193.473664000048
151.226	0.2	272	7	1	15	20	7	5	0	0	0	stim008_stimuli_original_animals_fish_4.png	F	0	0	0	193.673676800041	193.873674000031
151.626	0.2	273	7	1	15	21	3	0	0	0	0	stim004_stimuli_original_animals_birds_4.png	A	0	0	0	194.073698700056	194.273686500033
152.026	0.2	274	7	1	15	22	8	1	0	0	0	stim009_stimuli_original_vehicles_boats_1.png	B	0	0	0	194.473703600001	194.673692200042
152.426	0.2	275	7	1	15	23	5	2	0	0	0	stim006_stimuli_original_animals_fish_2.png	C	0	0	0	194.873705600039	195.0737066
152.826	0.2	276	7	1	15	24	4	15	0	0	0	stim005_stimuli_original_animals_fish_1.png	Y	0	0	0	195.273716400028	195.473715000029
153.226	0.2	277	7	1	15	25	12	11	1	0	0	stim013_stimuli_original_vehicles_planes_1.png	R	0	0	0	195.673725400004	195.873724300007
153.626	0.2	278	7	1	15	26	0	4	0	0	0	stim001_stimuli_original_animals_birds_1.png	E	0	0	0	196.073736400052	196.273734900053
154.026	0.2	279	7	1	15	27	12	2	1	1	0	stim013_stimuli_original_vehicles_planes_1.png	C	0	0	0	196.473747500044	196.673774900031
154.426	0.2	280	7	1	15	28	13	8	0	0	0	stim014_stimuli_original_vehicles_planes_2.png	K	0	0	0	196.87375920004	197.073757000035
154.826	0.2	281	7	1	15	29	2	2	0	1	1	stim003_stimuli_original_animals_birds_3.png	C	0	0	0	197.273785900034	197.473766100011
155.226	0.2	282	7	1	15	30	15	12	0	0	0	stim016_stimuli_original_vehicles_planes_4.png	T	0	0	0	197.673776500043	197.873777900008
155.626	0.2	283	7	1	15	31	14	9	0	0	0	stim015_stimuli_original_vehicles_planes_3.png	L	0	0	0	198.073788000038	198.273789300001
156.026	0.2	284	7	1	15	32	11	3	0	0	0	stim012_stimuli_original_vehicles_boats_4.png	D	0	0	0	198.473804400011	198.673798700038
156.426	0.2	285	7	1	15	33	9	13	0	0	0	stim010_stimuli_original_vehicles_boats_2.png	U	0	0	0	198.873809600016	199.073809800029
156.826	0.2	286	7	1	15	34	10	14	0	0	0	stim011_stimuli_original_vehicles_boats_3.png	V	0	0	0	199.273847500037	199.473818600003
157.226	0.2	287	7	1	15	35	6	7	0	0	0	stim007_stimuli_original_animals_fish_3.png	J	0	0	0	199.673831700056	199.873846600007
159.042	0.2	288	8	0	7	0	9	15	0	0	0	stim010_stimuli_original_vehicles_boats_2.png	Y	0	0	0	201.490613100003	201.690572300053
159.442	0.2	289	8	0	7	1	3	2	0	0	0	stim004_stimuli_original_animals_birds_4.png	C	0	0	0	201.890579800005	202.09057890001
159.842	0.2	290	8	0	7	2	2	11	0	0	0	stim003_stimuli_original_animals_birds_3.png	R	0	0	0	202.290589200042	202.490588900051
160.242	0.2	291	8	0	7	3	5	9	0	0	0	stim006_stimuli_original_animals_fish_2.png	L	0	0	0	202.690583100019	202.890599800041
160.642	0.2	292	8	0	7	4	11	12	0	0	0	stim012_stimuli_original_vehicles_boats_4.png	T	0	0	0	203.090613200038	203.290610900032
161.042	0.2	293	8	0	7	5	4	1	0	0	0	stim005_stimuli_original_animals_fish_1.png	B	0	0	0	203.490623500024	203.690619200002
161.442	0.2	294	8	0	7	6	8	7	0	0	0	stim009_stimuli_original_vehicles_boats_1.png	J	0	0	0	203.890635500022	204.090629700047
161.842	0.2	295	8	0	7	7	9	14	1	0	0	stim010_stimuli_original_vehicles_boats_2.png	V	0	0	0	204.29064120003	204.490650799999
162.242	0.2	296	8	0	7	8	1	9	0	1	0	stim002_stimuli_original_animals_birds_2.png	L	0	0	0	204.690650700009	204.890650400019
162.643	0.2	297	8	0	7	9	9	10	1	0	1	stim010_stimuli_original_vehicles_boats_2.png	Q	0	0	0	205.090663900017	205.290663800028
163.043	0.2	298	8	0	7	10	6	9	0	1	0	stim007_stimuli_original_animals_fish_3.png	L	0	0	0	205.490679400042	205.690678700048
163.443	0.2	299	8	0	7	11	14	13	0	0	0	stim015_stimuli_original_vehicles_planes_3.png	U	0	0	0	205.890692200046	206.0906846
163.843	0.2	300	8	0	7	12	12	8	0	0	0	stim013_stimuli_original_vehicles_planes_1.png	K	0	0	0	206.290692800016	206.490701600036
164.243	0.2	301	8	0	7	13	0	4	0	0	0	stim001_stimuli_original_animals_birds_1.png	E	0	0	0	206.690711400006	206.890711900021
164.643	0.2	302	8	0	7	14	7	5	0	0	0	stim008_stimuli_original_animals_fish_4.png	F	0	0	0	207.090722600056	207.290726400039
165.043	0.2	303	8	0	7	15	15	6	0	0	0	stim016_stimuli_original_vehicles_planes_4.png	G	0	0	0	207.490737400018	207.690734000003
165.443	0.2	304	8	0	7	16	10	3	0	0	0	stim011_stimuli_original_vehicles_boats_3.png	D	0	0	0	207.890743200027	208.090750700037
165.843	0.2	305	8	0	7	17	13	0	0	0	0	stim014_stimuli_original_vehicles_planes_2.png	A	0	0	0	208.290754900023	208.490750800003
166.243	0.2	306	8	0	7	18	0	13	0	0	0	stim001_stimuli_original_animals_birds_1.png	U	0	0	0	208.690765800013	208.890768700046
166.643	0.2	307	8	0	7	19	3	10	0	0	0	stim004_stimuli_original_animals_birds_4.png	Q	0	0	0	209.090781200037	209.290776800015
167.043	0.2	308	8	0	7	20	6	15	0	0	0	stim007_stimuli_original_animals_fish_3.png	Y	0	0	0	209.490789200005	209.690784600039
167.443	0.2	309	8	0	7	21	5	7	0	0	0	stim006_stimuli_original_animals_fish_2.png	J	0	0	0	209.890796800028	210.090798500052
167.843	0.2	310	8	0	7	22	4	0	0	0	0	stim005_stimuli_original_animals_fish_1.png	A	0	0	0	210.290809500031	210.490825200046
168.243	0.2	311	8	0	7	23	8	12	0	0	0	stim009_stimuli_original_vehicles_boats_1.png	T	0	0	0	210.690822300036	210.890832900011
168.643	0.2	312	8	0	7	24	13	14	0	0	0	stim014_stimuli_original_vehicles_planes_2.png	V	0	0	0	211.090834400035	211.290832700033
169.043	0.2	313	8	0	7	25	9	6	1	0	0	stim010_stimuli_original_vehicles_boats_2.png	G	0	0	0	211.490838900034	211.690836100024
169.443	0.2	314	8	0	7	26	10	9	0	1	0	stim011_stimuli_original_vehicles_boats_3.png	L	0	0	0	211.89085060003	212.090848300024
169.843	0.2	315	8	0	7	27	9	1	1	0	1	stim010_stimuli_original_vehicles_boats_2.png	B	0	0	0	212.290860100009	212.490862900042
170.243	0.2	316	8	0	7	28	14	9	0	1	0	stim015_stimuli_original_vehicles_planes_3.png	L	0	0	0	212.690855300054	212.890866800037
170.643	0.2	317	8	0	7	29	7	8	0	0	0	stim008_stimuli_original_animals_fish_4.png	K	NaN	213.282680100005	1	213.090890600055	213.290881600056
171.043	0.2	318	8	0	7	30	1	4	0	0	0	stim002_stimuli_original_animals_birds_2.png	E	0	0	0	213.490894700051	213.69087380002
171.443	0.2	319	8	0	7	31	12	11	0	0	0	stim013_stimuli_original_vehicles_planes_1.png	R	0	0	0	213.89090280002	214.090899200004
171.843	0.2	320	8	0	7	32	9	5	0	0	0	stim010_stimuli_original_vehicles_boats_2.png	F	0	0	0	214.290913900011	214.490910799999
172.243	0.2	321	8	0	7	33	11	2	0	0	0	stim012_stimuli_original_vehicles_boats_4.png	C	0	0	0	214.690927000018	214.890912700037
172.643	0.2	322	8	0	7	34	2	3	0	0	0	stim003_stimuli_original_animals_birds_3.png	D	0	0	0	215.090931600018	215.290903100045
173.043	0.2	323	8	0	7	35	15	9	0	0	0	stim016_stimuli_original_vehicles_planes_4.png	L	0	0	0	215.490943500015	215.690954300051
175.426	0.2	324	9	1	8	0	14	2	0	0	0	stim015_stimuli_original_vehicles_planes_3.png	C	0	0	0	217.874322600022	218.0743181
175.826	0.2	325	9	1	8	1	1	9	0	0	0	stim002_stimuli_original_animals_birds_2.png	L	0	0	0	218.274330500048	218.47432160005
176.226	0.2	326	9	1	8	2	6	15	0	0	0	stim007_stimuli_original_animals_fish_3.png	Y	0	0	0	218.674328400055	218.874329400016
176.626	0.2	327	9	1	8	3	7	4	0	0	0	stim008_stimuli_original_animals_fish_4.png	E	0	0	0	219.074368800037	219.27433840005
177.026	0.2	328	9	1	8	4	11	5	0	0	0	stim012_stimuli_original_vehicles_boats_4.png	F	0	0	0	219.474353900005	219.674373100046
177.426	0.2	329	9	1	8	5	0	10	0	1	0	stim001_stimuli_original_animals_birds_1.png	Q	0	0	0	219.874358900008	220.074362100044
177.826	0.2	330	9	1	8	6	4	13	0	0	0	stim005_stimuli_original_animals_fish_1.png	U	0	0	0	220.27437410003	220.474371000018
178.226	0.2	331	9	1	8	7	2	10	0	1	1	stim003_stimuli_original_animals_birds_3.png	Q	0	0	0	220.674380800046	220.874379900051
178.626	0.2	332	9	1	8	8	11	7	1	0	0	stim012_stimuli_original_vehicles_boats_4.png	J	NaN	221.266214000003	1	221.074391000031	221.274413900042
179.026	0.2	333	9	1	8	9	3	12	0	0	0	stim004_stimuli_original_animals_birds_4.png	T	0	0	0	221.474404600041	221.674416700029
179.426	0.2	334	9	1	8	10	11	10	1	0	0	stim012_stimuli_original_vehicles_boats_4.png	Q	0	0	0	221.874412400008	222.07441250002
179.826	0.2	335	9	1	8	11	15	1	0	0	0	stim016_stimuli_original_vehicles_planes_4.png	B	0	0	0	222.274433300016	222.474421600054
180.226	0.2	336	9	1	8	12	13	11	0	0	0	stim014_stimuli_original_vehicles_planes_2.png	R	0	0	0	222.674431700027	222.8744343
180.626	0.2	337	9	1	8	13	9	8	0	0	0	stim010_stimuli_original_vehicles_boats_2.png	K	0	0	0	223.074443600024	223.274447400006
181.026	0.2	338	9	1	8	14	12	0	0	0	0	stim013_stimuli_original_vehicles_planes_1.png	A	0	0	0	223.474453500006	223.674454500026
181.426	0.2	339	9	1	8	15	8	14	0	0	0	stim009_stimuli_original_vehicles_boats_1.png	V	0	0	0	223.874486500048	224.074470899999
181.826	0.2	340	9	1	8	16	10	3	0	0	0	stim011_stimuli_original_vehicles_boats_3.png	D	0	0	0	224.274492299999	224.474474200048
182.226	0.2	341	9	1	8	17	5	6	0	0	0	stim006_stimuli_original_animals_fish_2.png	G	0	0	0	224.674491100013	224.874497500015
182.626	0.2	342	9	1	8	18	6	5	0	0	0	stim007_stimuli_original_animals_fish_3.png	F	0	0	0	225.074498200032	225.274497600039
183.026	0.2	343	9	1	8	19	3	10	0	0	0	stim004_stimuli_original_animals_birds_4.png	Q	0	0	0	225.474509600026	225.674505500006
183.426	0.2	344	9	1	8	20	14	8	0	0	0	stim015_stimuli_original_vehicles_planes_3.png	K	0	0	0	225.874518100056	226.074516300054
183.826	0.2	345	9	1	8	21	0	12	0	0	0	stim001_stimuli_original_animals_birds_1.png	T	0	0	0	226.274529200047	226.474554400018
184.226	0.2	346	9	1	8	22	8	9	0	0	0	stim009_stimuli_original_vehicles_boats_1.png	L	0	0	0	226.674537400017	226.87453760003
184.626	0.2	347	9	1	8	23	11	13	0	0	0	stim012_stimuli_original_vehicles_boats_4.png	U	0	0	0	227.074576500047	227.274548800022
185.026	0.2	348	9	1	8	24	1	15	0	0	0	stim002_stimuli_original_animals_birds_2.png	Y	0	0	0	227.474559200055	227.674561200023
185.426	0.2	349	9	1	8	25	10	11	0	1	0	stim011_stimuli_original_vehicles_boats_3.png	R	0	0	0	227.874570300046	228.074569500051
185.826	0.2	350	9	1	8	26	12	3	0	0	0	stim013_stimuli_original_vehicles_planes_1.png	D	0	0	0	228.27458050003	228.474584700016
186.226	0.2	351	9	1	8	27	7	11	0	1	1	stim008_stimuli_original_animals_fish_4.png	R	0	0	0	228.674589300004	228.874592000037
186.626	0.2	352	9	1	8	28	10	2	1	0	0	stim011_stimuli_original_vehicles_boats_3.png	C	NaN	229.266416000028	1	229.0746239	229.274601400015
187.026	0.2	353	9	1	8	29	13	4	0	0	0	stim014_stimuli_original_vehicles_planes_2.png	E	0	0	0	229.474653100013	229.674623600033
187.426	0.2	354	9	1	8	30	10	0	1	0	0	stim011_stimuli_original_vehicles_boats_3.png	A	0	0	0	229.874622400035	230.074626900023
187.826	0.2	355	9	1	8	31	5	11	0	0	0	stim006_stimuli_original_animals_fish_2.png	R	0	0	0	230.274629800057	230.474631200021
188.226	0.2	356	9	1	8	32	4	7	0	0	0	stim005_stimuli_original_animals_fish_1.png	J	0	0	0	230.674642600003	230.874641600007
188.626	0.2	357	9	1	8	33	15	6	0	0	0	stim016_stimuli_original_vehicles_planes_4.png	G	NaN	231.06724210002	0	231.074653300049	231.274666600046
189.026	0.2	358	9	1	8	34	9	1	0	0	0	stim010_stimuli_original_vehicles_boats_2.png	B	0	0	0	231.474661600019	231.674674500013
189.426	0.2	359	9	1	8	35	2	14	0	0	0	stim003_stimuli_original_animals_birds_3.png	V	0	0	0	231.874674500024	232.074673900031
191.243	0.2	360	10	0	10	0	1	0	0	0	0	stim002_stimuli_original_animals_birds_2.png	A	0	0	0	233.691401600023	233.891390600009
191.643	0.2	361	10	0	10	1	13	1	0	0	0	stim014_stimuli_original_vehicles_planes_2.png	B	0	0	0	234.091422600031	234.291411000013
192.043	0.2	362	10	0	10	2	6	12	0	0	0	stim007_stimuli_original_animals_fish_3.png	T	0	0	0	234.491422500054	234.691419600043
192.443	0.2	363	10	0	10	3	9	9	0	0	0	stim010_stimuli_original_vehicles_boats_2.png	L	0	0	0	234.891431500029	235.091429200023
192.843	0.2	364	10	0	10	4	0	10	0	0	0	stim001_stimuli_original_animals_birds_1.png	Q	0	0	0	235.291444000031	235.491442400031
193.243	0.2	365	10	0	10	5	14	3	0	0	0	stim015_stimuli_original_vehicles_planes_3.png	D	0	0	0	235.691444700002	235.891453300021
193.643	0.2	366	10	0	10	6	4	8	0	0	0	stim005_stimuli_original_animals_fish_1.png	K	0	0	0	236.091472800006	236.291465900023
194.043	0.2	367	10	0	10	7	15	15	1	0	0	stim016_stimuli_original_vehicles_planes_4.png	Y	0	0	0	236.491474800045	236.691476500011
194.443	0.2	368	10	0	10	8	11	4	0	0	0	stim012_stimuli_original_vehicles_boats_4.png	E	0	0	0	236.891484700027	237.091482100019
194.843	0.2	369	10	0	10	9	15	13	1	1	1	stim016_stimuli_original_vehicles_planes_4.png	U	0	0	0	237.291494000005	237.491489900043
195.243	0.2	370	10	0	10	10	7	14	0	0	0	stim008_stimuli_original_animals_fish_4.png	V	0	0	0	237.691505499999	237.89150670002
195.643	0.2	371	10	0	10	11	12	13	0	1	0	stim013_stimuli_original_vehicles_planes_1.png	U	0	0	0	238.091514500033	238.291543100029
196.043	0.2	372	10	0	10	12	2	2	0	0	0	stim003_stimuli_original_animals_birds_3.png	C	0	0	0	238.491525900026	238.691520799999
196.443	0.2	373	10	0	10	13	5	11	0	0	0	stim006_stimuli_original_animals_fish_2.png	R	0	0	0	238.891563500045	239.091531800048
196.843	0.2	374	10	0	10	14	15	13	0	0	0	stim016_stimuli_original_vehicles_planes_4.png	U	0	0	0	239.291546799999	239.491545700002
197.243	0.2	375	10	0	10	15	3	7	0	0	0	stim004_stimuli_original_animals_birds_4.png	J	0	0	0	239.691557000042	239.891554200032
197.643	0.2	376	10	0	10	16	10	6	0	0	0	stim011_stimuli_original_vehicles_boats_3.png	G	NaN	240.084187900007	0	240.091569100041	240.291564400017
198.043	0.2	377	10	0	10	17	8	5	0	0	0	stim009_stimuli_original_vehicles_boats_1.png	F	0	0	0	240.491581700044	240.691575400007
198.443	0.2	378	10	0	10	18	5	8	0	0	0	stim006_stimuli_original_animals_fish_2.png	K	0	0	0	240.891618400055	241.091585400049
198.843	0.2	379	10	0	10	19	6	10	0	0	0	stim007_stimuli_original_animals_fish_3.png	Q	0	0	0	241.291598400043	241.49159390002
199.243	0.2	380	10	0	10	20	7	3	0	0	0	stim008_stimuli_original_animals_fish_4.png	D	0	0	0	241.691604700056	241.891594100045
199.643	0.2	381	10	0	10	21	13	15	0	0	0	stim014_stimuli_original_vehicles_planes_2.png	Y	0	0	0	242.091606700036	242.291607200052
200.043	0.2	382	10	0	10	22	11	5	0	0	0	stim012_stimuli_original_vehicles_boats_4.png	F	0	0	0	242.491618300031	242.69161530002
200.443	0.2	383	10	0	10	23	2	2	0	0	0	stim003_stimuli_original_animals_birds_3.png	C	0	0	0	242.891629600024	243.091626900015
200.843	0.2	384	10	0	10	24	13	12	1	0	0	stim014_stimuli_original_vehicles_planes_2.png	T	0	0	0	243.291639600007	243.491638900014
201.243	0.2	385	10	0	10	25	14	7	0	0	0	stim015_stimuli_original_vehicles_planes_3.png	J	0	0	0	243.691650500055	243.891654200037
201.643	0.2	386	10	0	10	26	13	15	1	1	1	stim014_stimuli_original_vehicles_planes_2.png	Y	0	0	0	244.091658900026	244.291656800022
202.043	0.2	387	10	0	10	27	4	11	0	0	0	stim005_stimuli_original_animals_fish_1.png	R	0	0	0	244.491684600012	244.691680900054
202.443	0.2	388	10	0	10	28	15	15	0	1	0	stim016_stimuli_original_vehicles_planes_4.png	Y	0	0	0	244.89169150003	245.091691700043
202.843	0.2	389	10	0	10	29	8	4	0	0	0	stim009_stimuli_original_vehicles_boats_1.png	E	0	0	0	245.291702200018	245.491700700019
203.243	0.2	390	10	0	10	30	3	14	0	0	0	stim004_stimuli_original_animals_birds_4.png	V	0	0	0	245.691702100041	245.891701600049
203.643	0.2	391	10	0	10	31	10	0	0	0	0	stim011_stimuli_original_vehicles_boats_3.png	A	0	0	0	246.091713700036	246.291714300052
204.043	0.2	392	10	0	10	32	9	9	0	0	0	stim010_stimuli_original_vehicles_boats_2.png	L	0	0	0	246.491721500002	246.691720700008
204.443	0.2	393	10	0	10	33	12	6	0	0	0	stim013_stimuli_original_vehicles_planes_1.png	G	0	0	0	246.891735700017	247.091736900038
204.843	0.2	394	10	0	10	34	1	13	0	0	0	stim002_stimuli_original_animals_birds_2.png	U	0	0	0	247.291741400026	247.491739900026
205.243	0.2	395	10	0	10	35	0	1	0	0	0	stim001_stimuli_original_animals_birds_1.png	B	0	0	0	247.691755300038	247.891754300043
209.477	0.2	396	11	1	42	0	4	15	0	0	0	stim005_stimuli_original_animals_fish_1.png	Y	0	0	0	251.925227500033	252.125224600022
209.877	0.2	397	11	1	42	1	1	9	0	0	0	stim002_stimuli_original_animals_birds_2.png	L	0	0	0	252.325234200049	252.52524290001
210.277	0.2	398	11	1	42	2	11	14	0	0	0	stim012_stimuli_original_vehicles_boats_4.png	V	0	0	0	252.725243400026	252.925245800056
210.677	0.2	399	11	1	42	3	9	7	0	0	0	stim010_stimuli_original_vehicles_boats_2.png	J	0	0	0	253.125259200053	253.325254500029
211.077	0.2	400	11	1	42	4	14	3	0	0	0	stim015_stimuli_original_vehicles_planes_3.png	D	0	0	0	253.52526580001	253.725264600012
211.477	0.2	401	11	1	42	5	3	5	0	0	0	stim004_stimuli_original_animals_birds_4.png	F	0	0	0	253.925277200004	254.125277300016
211.877	0.2	402	11	1	42	6	7	0	0	0	0	stim008_stimuli_original_animals_fish_4.png	A	0	0	0	254.32528660004	254.525290600024
212.277	0.2	403	11	1	42	7	2	8	0	0	0	stim003_stimuli_original_animals_birds_3.png	K	0	0	0	254.725274000026	254.925299400056
212.677	0.2	404	11	1	42	8	5	10	0	0	0	stim006_stimuli_original_animals_fish_2.png	Q	0	0	0	255.125304300047	255.325303800055
213.077	0.2	405	11	1	42	9	13	13	0	0	0	stim014_stimuli_original_vehicles_planes_2.png	U	0	0	0	255.525318500004	255.72532940004
213.477	0.2	406	11	1	42	10	4	6	1	0	0	stim005_stimuli_original_animals_fish_1.png	G	0	0	0	255.925326900033	256.125332300027
213.877	0.2	407	11	1	42	11	12	11	0	0	0	stim013_stimuli_original_vehicles_planes_1.png	R	0	0	0	256.32533740002	256.525336300023
214.277	0.2	408	11	1	42	12	4	7	1	1	0	stim005_stimuli_original_animals_fish_1.png	J	0	0	0	256.725344500039	256.925349300029
214.677	0.2	409	11	1	42	13	15	4	0	0	0	stim016_stimuli_original_vehicles_planes_4.png	E	0	0	0	257.125360000005	257.325349600054
215.077	0.2	410	11	1	42	14	0	7	0	1	1	stim001_stimuli_original_animals_birds_1.png	J	0	0	0	257.525368200033	257.725369899999
215.477	0.2	411	11	1	42	15	8	2	0	0	0	stim009_stimuli_original_vehicles_boats_1.png	C	NaN	258.117175000021	1	257.925383900001	258.125382500002
215.877	0.2	412	11	1	42	16	6	12	0	0	0	stim007_stimuli_original_animals_fish_3.png	T	0	0	0	258.325377100031	258.525392700045
216.277	0.2	413	11	1	42	17	10	1	0	0	0	stim011_stimuli_original_vehicles_boats_3.png	B	0	0	0	258.725403600023	258.92540160002
216.677	0.2	414	11	1	42	18	1	10	0	0	0	stim002_stimuli_original_animals_birds_2.png	Q	0	0	0	259.125415900024	259.325400400034
217.077	0.2	415	11	1	42	19	12	6	0	0	0	stim013_stimuli_original_vehicles_planes_1.png	G	0	0	0	259.525425300002	259.725423800002
217.477	0.2	416	11	1	42	20	2	8	0	0	0	stim003_stimuli_original_animals_birds_3.png	K	0	0	0	259.925417700026	260.125435100053
217.877	0.2	417	11	1	42	21	7	0	1	0	0	stim008_stimuli_original_animals_fish_4.png	A	0	0	0	260.32544840005	260.525437500037
218.277	0.2	418	11	1	42	22	4	15	0	0	0	stim005_stimuli_original_animals_fish_1.png	Y	0	0	0	260.725459900044	260.92545780004
218.677	0.2	419	11	1	42	23	7	4	1	1	0	stim008_stimuli_original_animals_fish_4.png	E	0	0	0	261.125465400051	261.325467600022
219.077	0.2	420	11	1	42	24	11	12	0	0	0	stim012_stimuli_original_vehicles_boats_4.png	T	0	0	0	261.525477000047	261.725479900022
219.477	0.2	421	11	1	42	25	6	4	0	1	1	stim007_stimuli_original_animals_fish_3.png	E	0	0	0	261.925493300019	262.125488700054
219.877	0.2	422	11	1	42	26	13	13	0	0	0	stim014_stimuli_original_vehicles_planes_2.png	U	0	0	0	262.325498900027	262.525512500026
220.277	0.2	423	11	1	42	27	10	5	0	0	0	stim011_stimuli_original_vehicles_boats_3.png	F	0	0	0	262.725510500022	262.925513000053
220.677	0.2	424	11	1	42	28	8	2	0	0	0	stim009_stimuli_original_vehicles_boats_1.png	C	0	0	0	263.125525800046	263.325519100006
221.077	0.2	425	11	1	42	29	0	7	0	0	0	stim001_stimuli_original_animals_birds_1.png	J	0	0	0	263.525529000035	263.725525400019
221.477	0.2	426	11	1	42	30	5	3	0	0	0	stim006_stimuli_original_animals_fish_2.png	D	0	0	0	263.925540500029	264.125545300019
221.877	0.2	427	11	1	42	31	3	14	0	0	0	stim004_stimuli_original_animals_birds_4.png	V	0	0	0	264.325549800007	264.52554990002
222.277	0.2	428	11	1	42	32	7	9	0	0	0	stim008_stimuli_original_animals_fish_4.png	L	0	0	0	264.725532200013	264.925559399999
222.677	0.2	429	11	1	42	33	14	11	0	0	0	stim015_stimuli_original_vehicles_planes_3.png	R	0	0	0	265.125565499999	265.325566900021
223.077	0.2	430	11	1	42	34	9	1	0	0	0	stim010_stimuli_original_vehicles_boats_2.png	B	0	0	0	265.525578300003	265.725581000035
223.477	0.2	431	11	1	42	35	15	4	0	0	0	stim016_stimuli_original_vehicles_planes_4.png	E	0	0	0	265.925589300052	266.125587900053
225.311	0.2	432	12	0	18	0	7	5	0	0	0	stim008_stimuli_original_animals_fish_4.png	F	0	0	0	267.7589745	267.958978800045
225.711	0.2	433	12	0	18	1	1	12	0	0	0	stim002_stimuli_original_animals_birds_2.png	T	0	0	0	268.158983900037	268.358990300039
226.111	0.2	434	12	0	18	2	11	8	0	0	0	stim012_stimuli_original_vehicles_boats_4.png	K	0	0	0	268.558998600056	268.759004400054
226.511	0.2	435	12	0	18	3	4	0	0	0	0	stim005_stimuli_original_animals_fish_1.png	A	0	0	0	268.959011600004	269.159009700001
226.911	0.2	436	12	0	18	4	8	9	0	0	0	stim009_stimuli_original_vehicles_boats_1.png	L	0	0	0	269.359033300017	269.559021300054
227.311	0.2	437	12	0	18	5	13	10	0	0	0	stim014_stimuli_original_vehicles_planes_2.png	Q	0	0	0	269.759030500019	269.959030800033
227.711	0.2	438	12	0	18	6	12	15	0	0	0	stim013_stimuli_original_vehicles_planes_1.png	Y	0	0	0	270.159041200008	270.359040600015
228.111	0.2	439	12	0	18	7	15	6	1	0	0	stim016_stimuli_original_vehicles_planes_4.png	G	0	0	0	270.559052500001	270.759051700006
228.511	0.2	440	12	0	18	8	14	13	0	0	0	stim015_stimuli_original_vehicles_planes_3.png	U	0	0	0	270.959069500037	271.159062300052
228.911	0.2	441	12	0	18	9	15	3	1	0	1	stim016_stimuli_original_vehicles_planes_4.png	D	0	0	0	271.359053700056	271.559069600014
229.311	0.2	442	12	0	18	10	2	2	0	0	0	stim003_stimuli_original_animals_birds_3.png	C	0	0	0	271.759082300006	271.959084200033
229.711	0.2	443	12	0	18	11	6	15	0	1	0	stim007_stimuli_original_animals_fish_3.png	Y	0	0	0	272.159096600022	272.359095900028
230.111	0.2	444	12	0	18	12	9	1	0	0	0	stim010_stimuli_original_vehicles_boats_2.png	B	0	0	0	272.559104600048	272.759087700048
230.511	0.2	445	12	0	18	13	15	15	0	1	0	stim016_stimuli_original_vehicles_planes_4.png	Y	NaN	272.951704100007	1	272.959114000027	273.159115400049
230.911	0.2	446	12	0	18	14	10	4	0	0	0	stim011_stimuli_original_vehicles_boats_3.png	E	0	0	0	273.359127400036	273.559123700019
231.311	0.2	447	12	0	18	15	5	11	0	0	0	stim006_stimuli_original_animals_fish_2.png	R	0	0	0	273.759157600056	273.959151500021
231.711	0.2	448	12	0	18	16	0	14	0	0	0	stim001_stimuli_original_animals_birds_1.png	V	0	0	0	274.159149100014	274.359151800047
232.111	0.2	449	12	0	18	17	3	7	0	0	0	stim004_stimuli_original_animals_birds_4.png	J	0	0	0	274.559159000055	274.759163900046
232.511	0.2	450	12	0	18	18	7	3	0	0	0	stim008_stimuli_original_animals_fish_4.png	D	0	0	0	274.959169500042	275.159164600016
232.911	0.2	451	12	0	18	19	14	0	0	0	0	stim015_stimuli_original_vehicles_planes_3.png	A	0	0	0	275.359162200009	275.559178000025
233.311	0.2	452	12	0	18	20	11	5	0	0	0	stim012_stimuli_original_vehicles_boats_4.png	F	0	0	0	275.759187200048	275.959177700046
233.711	0.2	453	12	0	18	21	4	10	0	0	0	stim005_stimuli_original_animals_fish_1.png	Q	0	0	0	276.159199700051	276.359198700055
234.111	0.2	454	12	0	18	22	15	15	1	0	0	stim016_stimuli_original_vehicles_planes_4.png	Y	0	0	0	276.559206900012	276.759198500018
234.511	0.2	455	12	0	18	23	1	9	0	0	0	stim002_stimuli_original_animals_birds_2.png	L	0	0	0	276.95922010002	277.159217000008
234.911	0.2	456	12	0	18	24	15	6	1	0	1	stim016_stimuli_original_vehicles_planes_4.png	G	0	0	0	277.359230700007	277.559227300051
235.311	0.2	457	12	0	18	25	2	2	0	0	0	stim003_stimuli_original_animals_birds_3.png	C	0	0	0	277.759238100029	277.9592404
235.711	0.2	458	12	0	18	26	3	15	0	1	0	stim004_stimuli_original_animals_birds_4.png	Y	0	0	0	278.159251700039	278.359237000055
236.111	0.2	459	12	0	18	27	13	14	0	0	0	stim014_stimuli_original_vehicles_planes_2.png	V	0	0	0	278.55926410004	278.759255900048
236.511	0.2	460	12	0	18	28	6	15	0	1	0	stim007_stimuli_original_animals_fish_3.png	Y	0	0	0	278.959274300025	279.159281800035
236.911	0.2	461	12	0	18	29	15	12	0	0	0	stim016_stimuli_original_vehicles_planes_4.png	T	NaN	279.551072900009	1	279.359285400016	279.559281100053
237.311	0.2	462	12	0	18	30	10	13	0	0	0	stim011_stimuli_original_vehicles_boats_3.png	U	0	0	0	279.759292900038	279.959293100052
237.711	0.2	463	12	0	18	31	9	8	0	0	0	stim010_stimuli_original_vehicles_boats_2.png	K	0	0	0	280.159304500034	280.359311300039
238.111	0.2	464	12	0	18	32	0	4	0	0	0	stim001_stimuli_original_animals_birds_1.png	E	0	0	0	280.559313500009	280.759314400028
238.511	0.2	465	12	0	18	33	8	11	0	0	0	stim009_stimuli_original_vehicles_boats_1.png	R	0	0	0	280.959323300049	281.159324600012
238.911	0.2	466	12	0	18	34	12	1	0	0	0	stim013_stimuli_original_vehicles_planes_1.png	B	0	0	0	281.359360600007	281.559338300023
239.311	0.2	467	12	0	18	35	5	7	0	0	0	stim006_stimuli_original_animals_fish_2.png	J	0	0	0	281.759329000022	281.959330600046
244.361	0.2	468	13	1	36	0	8	2	0	0	0	stim009_stimuli_original_vehicles_boats_1.png	C	0	0	0	286.809471600049	287.009468800039
244.761	0.2	469	13	1	36	1	5	4	0	0	0	stim006_stimuli_original_animals_fish_2.png	E	0	0	0	287.209480800026	287.40947850002
245.161	0.2	470	13	1	36	2	14	14	0	0	0	stim015_stimuli_original_vehicles_planes_3.png	V	0	0	0	287.60947700002	287.809493900044
245.561	0.2	471	13	1	36	3	3	6	0	0	0	stim004_stimuli_original_animals_birds_4.png	G	0	0	0	288.009478100052	288.209500600002
245.961	0.2	472	13	1	36	4	7	10	0	0	0	stim008_stimuli_original_animals_fish_4.png	Q	0	0	0	288.409512300044	288.609510400041
246.361	0.2	473	13	1	36	5	4	12	0	0	0	stim005_stimuli_original_animals_fish_1.png	T	0	0	0	288.809521800024	289.009520900028
246.761	0.2	474	13	1	36	6	10	9	0	0	0	stim011_stimuli_original_vehicles_boats_3.png	L	0	0	0	289.209533400019	289.40953210002
247.161	0.2	475	13	1	36	7	3	0	1	0	0	stim004_stimuli_original_animals_birds_4.png	A	0	0	0	289.609542200051	289.809541900002
247.561	0.2	476	13	1	36	8	11	5	0	0	0	stim012_stimuli_original_vehicles_boats_4.png	F	0	0	0	290.009554600052	290.209542400029
247.961	0.2	477	13	1	36	9	3	7	1	0	0	stim004_stimuli_original_animals_birds_4.png	J	0	0	0	290.409561900015	290.609569800028
248.361	0.2	478	13	1	36	10	12	4	0	1	0	stim013_stimuli_original_vehicles_planes_1.png	E	0	0	0	290.809588300006	291.00957470003
248.761	0.2	479	13	1	36	11	13	15	0	0	0	stim014_stimuli_original_vehicles_planes_2.png	Y	0	0	0	291.209584100056	291.409583200002
249.161	0.2	480	13	1	36	12	6	4	0	1	1	stim007_stimuli_original_animals_fish_3.png	E	0	0	0	291.609594800044	291.809617600054
249.561	0.2	481	13	1	36	13	15	1	0	0	0	stim016_stimuli_original_vehicles_planes_4.png	B	0	0	0	292.009604100022	292.209610200021
249.961	0.2	482	13	1	36	14	2	8	0	0	0	stim003_stimuli_original_animals_birds_3.png	K	0	0	0	292.409613700002	292.609614700021
250.361	0.2	483	13	1	36	15	9	11	0	0	0	stim010_stimuli_original_vehicles_boats_2.png	R	0	0	0	292.809626700007	293.009626600018
250.761	0.2	484	13	1	36	16	0	3	0	0	0	stim001_stimuli_original_animals_birds_1.png	D	0	0	0	293.209635900042	293.409642400045
251.161	0.2	485	13	1	36	17	1	13	0	0	0	stim002_stimuli_original_animals_birds_2.png	U	0	0	0	293.609648400045	293.809644600027
251.561	0.2	486	13	1	36	18	13	1	0	0	0	stim014_stimuli_original_vehicles_planes_2.png	B	0	0	0	294.00965870003	294.209659400047
251.961	0.2	487	13	1	36	19	3	0	0	0	0	stim004_stimuli_original_animals_birds_4.png	A	0	0	0	294.409668400011	294.609664500051
252.361	0.2	488	13	1	36	20	11	9	0	0	0	stim012_stimuli_original_vehicles_boats_4.png	L	0	0	0	294.809681000013	295.009680500021
252.761	0.2	489	13	1	36	21	8	2	0	0	0	stim009_stimuli_original_vehicles_boats_1.png	C	0	0	0	295.209688700037	295.409682400001
253.161	0.2	490	13	1	36	22	1	15	0	0	0	stim002_stimuli_original_animals_birds_2.png	Y	0	0	0	295.609698100016	295.809704900021
253.561	0.2	491	13	1	36	23	4	6	1	0	0	stim005_stimuli_original_animals_fish_1.png	G	0	0	0	296.009715500055	296.209710100025
253.961	0.2	492	13	1	36	24	15	13	0	0	0	stim016_stimuli_original_vehicles_planes_4.png	U	0	0	0	296.409720800002	296.609718300053
254.361	0.2	493	13	1	36	25	4	12	1	0	0	stim005_stimuli_original_animals_fish_1.png	T	0	0	0	296.809727200016	297.009730000049
254.761	0.2	494	13	1	36	26	7	3	0	1	0	stim008_stimuli_original_animals_fish_4.png	D	0	0	0	297.209741800034	297.409741700045
255.161	0.2	495	13	1	36	27	5	11	0	0	0	stim006_stimuli_original_animals_fish_2.png	R	0	0	0	297.609749900002	297.809750900022
255.561	0.2	496	13	1	36	28	0	3	0	1	1	stim001_stimuli_original_animals_birds_1.png	D	0	0	0	298.009733500017	298.209761800012
255.961	0.2	497	13	1	36	29	9	10	0	0	0	stim010_stimuli_original_vehicles_boats_2.png	Q	0	0	0	298.409775000007	298.609787000052
256.361	0.2	498	13	1	36	30	12	4	0	0	0	stim013_stimuli_original_vehicles_planes_1.png	E	NaN	299.001574400056	1	298.80978250003	299.009783900052
256.761	0.2	499	13	1	36	31	10	7	0	0	0	stim011_stimuli_original_vehicles_boats_3.png	J	0	0	0	299.209794000024	299.409795700049
257.161	0.2	500	13	1	36	32	6	3	0	0	0	stim007_stimuli_original_animals_fish_3.png	D	0	0	0	299.60980970005	299.809805900033
257.561	0.2	501	13	1	36	33	14	14	0	0	0	stim015_stimuli_original_vehicles_planes_3.png	V	0	0	0	300.009813900047	300.209854000015
257.961	0.2	502	13	1	36	34	4	5	0	0	0	stim005_stimuli_original_animals_fish_1.png	F	0	0	0	300.409826800053	300.609827700013
258.361	0.2	503	13	1	36	35	2	8	0	0	0	stim003_stimuli_original_animals_birds_3.png	K	0	0	0	300.809849900019	301.009836300043
262.478	0.2	504	14	0	19	0	12	7	0	0	0	stim013_stimuli_original_vehicles_planes_1.png	J	0	0	0	304.926604600041	305.126604000048
262.878	0.2	505	14	0	19	1	14	3	0	0	0	stim015_stimuli_original_vehicles_planes_3.png	D	0	0	0	305.326613300014	305.526602700003
263.278	0.2	506	14	0	19	2	6	5	0	0	0	stim007_stimuli_original_animals_fish_3.png	F	0	0	0	305.726608299999	305.926607500005
263.678	0.2	507	14	0	19	3	9	10	0	0	0	stim010_stimuli_original_vehicles_boats_2.png	Q	0	0	0	306.12661950005	306.326616000035
264.078	0.2	508	14	0	19	4	11	12	0	0	0	stim012_stimuli_original_vehicles_boats_4.png	T	0	0	0	306.526628700027	306.726630100049
264.478	0.2	509	14	0	19	5	0	15	0	1	0	stim001_stimuli_original_animals_birds_1.png	Y	0	0	0	306.926643000043	307.126639900031
264.878	0.2	510	14	0	19	6	2	0	0	0	0	stim003_stimuli_original_animals_birds_3.png	A	0	0	0	307.32665100001	307.526649600011
265.278	0.2	511	14	0	19	7	10	15	0	1	0	stim011_stimuli_original_vehicles_boats_3.png	Y	0	0	0	307.726658800035	307.92666160001
265.678	0.2	512	14	0	19	8	8	14	0	0	0	stim009_stimuli_original_vehicles_boats_1.png	V	NaN	308.318473300023	0	308.126674500003	308.326673000003
266.078	0.2	513	14	0	19	9	4	4	1	0	0	stim005_stimuli_original_animals_fish_1.png	E	0	0	0	308.526684600045	308.726682700042
266.478	0.2	514	14	0	19	10	1	13	0	0	0	stim002_stimuli_original_animals_birds_2.png	U	0	0	0	308.926691100001	309.126690800011
266.878	0.2	515	14	0	19	11	4	1	1	0	1	stim005_stimuli_original_animals_fish_1.png	B	0	0	0	309.326701300044	309.526702300005
267.278	0.2	516	14	0	19	12	7	15	0	0	0	stim008_stimuli_original_animals_fish_4.png	Y	0	0	0	309.726712500036	309.926717500028
267.678	0.2	517	14	0	19	13	15	9	0	0	0	stim016_stimuli_original_vehicles_planes_4.png	L	0	0	0	310.126722700021	310.326724500046
268.078	0.2	518	14	0	19	14	13	8	0	0	0	stim014_stimuli_original_vehicles_planes_2.png	K	0	0	0	310.526734300016	310.726734800031
268.478	0.2	519	14	0	19	15	5	6	0	0	0	stim006_stimuli_original_animals_fish_2.png	G	0	0	0	310.92674330005	311.12674550002
268.878	0.2	520	14	0	19	16	3	11	0	0	0	stim004_stimuli_original_animals_birds_4.png	R	0	0	0	311.326755900052	311.526770100056
269.278	0.2	521	14	0	19	17	4	2	0	0	0	stim005_stimuli_original_animals_fish_1.png	C	0	0	0	311.726781700039	311.926778100024
269.678	0.2	522	14	0	19	18	2	4	0	0	0	stim003_stimuli_original_animals_birds_3.png	E	0	0	0	312.126786700042	312.326787600003
270.078	0.2	523	14	0	19	19	11	3	0	0	0	stim012_stimuli_original_vehicles_boats_4.png	D	0	0	0	312.526799700048	312.726799200056
270.478	0.2	524	14	0	19	20	6	5	0	0	0	stim007_stimuli_original_animals_fish_3.png	F	0	0	0	312.926808700024	313.126808100031
270.878	0.2	525	14	0	19	21	8	13	0	0	0	stim009_stimuli_original_vehicles_boats_1.png	U	0	0	0	313.326811400009	313.526817000005
271.278	0.2	526	14	0	19	22	9	15	0	0	0	stim010_stimuli_original_vehicles_boats_2.png	Y	0	0	0	313.726815600006	313.92681720003
271.678	0.2	527	14	0	19	23	15	7	0	0	0	stim016_stimuli_original_vehicles_planes_4.png	J	0	0	0	314.126827100001	314.326841100003
272.078	0.2	528	14	0	19	24	1	4	0	1	0	stim002_stimuli_original_animals_birds_2.png	E	0	0	0	314.526840300008	314.726850900042
272.478	0.2	529	14	0	19	25	13	1	0	0	0	stim014_stimuli_original_vehicles_planes_2.png	B	0	0	0	314.926850500051	315.126852300018
272.878	0.2	530	14	0	19	26	4	4	0	1	0	stim005_stimuli_original_animals_fish_1.png	E	0	0	0	315.326859500026	315.526857700024
273.278	0.2	531	14	0	19	27	14	8	0	0	0	stim015_stimuli_original_vehicles_planes_3.png	K	0	0	0	315.72686960001	315.926870200026
273.678	0.2	532	14	0	19	28	15	10	1	0	0	stim016_stimuli_original_vehicles_planes_4.png	Q	0	0	0	316.126881300006	316.326879
274.078	0.2	533	14	0	19	29	0	2	0	0	0	stim001_stimuli_original_animals_birds_1.png	C	0	0	0	316.52689030004	316.726889700047
274.478	0.2	534	14	0	19	30	15	0	1	0	1	stim016_stimuli_original_vehicles_planes_4.png	A	0	0	0	316.926902300038	317.126899900031
274.878	0.2	535	14	0	19	31	12	11	0	0	0	stim013_stimuli_original_vehicles_planes_1.png	R	0	0	0	317.326911300013	317.526917600015
275.278	0.2	536	14	0	19	32	10	9	0	0	0	stim011_stimuli_original_vehicles_boats_3.png	L	0	0	0	317.726923900016	317.926928300003
275.678	0.2	537	14	0	19	33	5	6	0	0	0	stim006_stimuli_original_animals_fish_2.png	G	0	0	0	318.126933600055	318.326937400037
276.078	0.2	538	14	0	19	34	3	14	0	0	0	stim004_stimuli_original_animals_birds_4.png	V	0	0	0	318.526941700024	318.726946800016
276.479	0.2	539	14	0	19	35	7	12	0	0	0	stim008_stimuli_original_animals_fish_4.png	T	0	0	0	318.926953900023	319.126958700013
279.112	0.2	540	15	1	35	0	12	7	0	0	0	stim013_stimuli_original_vehicles_planes_1.png	J	0	0	0	321.5603596	321.760395300051
279.512	0.2	541	15	1	35	1	13	9	0	0	0	stim014_stimuli_original_vehicles_planes_2.png	L	0	0	0	321.960380200006	322.160375900043
279.912	0.2	542	15	1	35	2	4	3	0	0	0	stim005_stimuli_original_animals_fish_1.png	D	0	0	0	322.360407200002	322.560375700006
280.312	0.2	543	15	1	35	3	1	15	0	0	0	stim002_stimuli_original_animals_birds_2.png	Y	0	0	0	322.760407500027	322.960398100025
280.712	0.2	544	15	1	35	4	11	13	1	0	0	stim012_stimuli_original_vehicles_boats_4.png	U	0	0	0	323.160398800042	323.360397500044
281.112	0.2	545	15	1	35	5	3	1	0	0	0	stim004_stimuli_original_animals_birds_4.png	B	0	0	0	323.560407600016	323.760408400034
281.512	0.2	546	15	1	35	6	11	4	1	0	0	stim012_stimuli_original_vehicles_boats_4.png	E	0	0	0	323.960418700008	324.160420800035
281.912	0.2	547	15	1	35	7	15	8	0	0	0	stim016_stimuli_original_vehicles_planes_4.png	K	0	0	0	324.360451000044	324.560429800011
282.312	0.2	548	15	1	35	8	2	14	0	0	0	stim003_stimuli_original_animals_birds_3.png	V	0	0	0	324.760440500046	324.96045980003
282.712	0.2	549	15	1	35	9	9	6	0	0	0	stim010_stimuli_original_vehicles_boats_2.png	G	0	0	0	325.160452900047	325.360451000044
283.112	0.2	550	15	1	35	10	11	12	0	1	0	stim012_stimuli_original_vehicles_boats_4.png	T	0	0	0	325.560474900005	325.760460400023
283.512	0.2	551	15	1	35	11	10	5	0	0	0	stim011_stimuli_original_vehicles_boats_3.png	F	0	0	0	325.960481400019	326.160482200037
283.912	0.2	552	15	1	35	12	8	12	0	1	1	stim009_stimuli_original_vehicles_boats_1.png	T	0	0	0	326.360493000015	326.560497099999
284.312	0.2	553	15	1	35	13	0	10	0	0	0	stim001_stimuli_original_animals_birds_1.png	Q	NaN	326.952303800033	1	326.760504000005	326.960515300045
284.712	0.2	554	15	1	35	14	7	11	0	0	0	stim008_stimuli_original_animals_fish_4.png	R	0	0	0	327.16051680001	327.360514700005
285.112	0.2	555	15	1	35	15	6	12	0	0	0	stim007_stimuli_original_animals_fish_3.png	T	0	0	0	327.560537600017	327.76052390004
285.512	0.2	556	15	1	35	16	14	2	0	0	0	stim015_stimuli_original_vehicles_planes_3.png	C	0	0	0	327.960536000028	328.16053210001
285.912	0.2	557	15	1	35	17	5	0	0	0	0	stim006_stimuli_original_animals_fish_2.png	A	0	0	0	328.360550400044	328.56054570002
286.312	0.2	558	15	1	35	18	0	5	0	0	0	stim001_stimuli_original_animals_birds_1.png	F	0	0	0	328.760554900044	328.960554500052
286.712	0.2	559	15	1	35	19	2	14	0	0	0	stim003_stimuli_original_animals_birds_3.png	V	0	0	0	329.160593900015	329.360561000009
287.112	0.2	560	15	1	35	20	12	6	0	0	0	stim013_stimuli_original_vehicles_planes_1.png	G	0	0	0	329.560580300051	329.760605900025
287.512	0.2	561	15	1	35	21	11	7	0	0	0	stim012_stimuli_original_vehicles_boats_4.png	J	0	0	0	329.960587600013	330.160576900002
287.912	0.2	562	15	1	35	22	10	0	0	0	0	stim011_stimuli_original_vehicles_boats_3.png	A	0	0	0	330.360597800056	330.560595900053
288.312	0.2	563	15	1	35	23	12	8	1	0	0	stim013_stimuli_original_vehicles_planes_1.png	K	0	0	0	330.760609500052	330.960610200011
288.712	0.2	564	15	1	35	24	5	10	0	0	0	stim006_stimuli_original_animals_fish_2.png	Q	0	0	0	331.160622399999	331.360611700045
289.112	0.2	565	15	1	35	25	12	11	1	0	0	stim013_stimuli_original_vehicles_planes_1.png	R	0	0	0	331.560630200023	331.760658000014
289.512	0.2	566	15	1	35	26	6	9	0	0	0	stim007_stimuli_original_animals_fish_3.png	L	0	0	0	331.960629600042	332.160639700014
289.912	0.2	567	15	1	35	27	14	2	0	0	0	stim015_stimuli_original_vehicles_planes_3.png	C	0	0	0	332.360669000016	332.560647200036
290.312	0.2	568	15	1	35	28	8	15	0	0	0	stim009_stimuli_original_vehicles_boats_1.png	Y	0	0	0	332.760660500033	332.960660500044
290.712	0.2	569	15	1	35	29	4	11	0	1	0	stim005_stimuli_original_animals_fish_1.png	R	0	0	0	333.160671600024	333.360673700052
291.112	0.2	570	15	1	35	30	1	3	0	0	0	stim002_stimuli_original_animals_birds_2.png	D	0	0	0	333.560682200012	333.760679800005
291.512	0.2	571	15	1	35	31	13	11	0	1	1	stim014_stimuli_original_vehicles_planes_2.png	R	0	0	0	333.960694700014	334.160690500052
291.912	0.2	572	15	1	35	32	15	1	0	0	0	stim016_stimuli_original_vehicles_planes_4.png	B	0	0	0	334.360715700022	334.560701500042
292.312	0.2	573	15	1	35	33	3	4	0	0	0	stim004_stimuli_original_animals_birds_4.png	E	NaN	334.753279900004	1	334.760713000025	334.960700200056
292.712	0.2	574	15	1	35	34	9	13	0	0	0	stim010_stimuli_original_vehicles_boats_2.png	U	0	0	0	335.160722800007	335.360725500039
293.112	0.2	575	15	1	35	35	7	12	0	0	0	stim008_stimuli_original_animals_fish_4.png	T	0	0	0	335.560733400052	335.760732499999
295.079	0.2	576	16	0	16	0	13	15	0	0	0	stim014_stimuli_original_vehicles_planes_2.png	Y	0	0	0	337.527475600014	337.727475100022
295.479	0.2	577	16	0	16	1	10	2	0	0	0	stim011_stimuli_original_vehicles_boats_3.png	C	0	0	0	337.927482800034	338.127482900047
295.879	0.2	578	16	0	16	2	12	12	0	0	0	stim013_stimuli_original_vehicles_planes_1.png	T	0	0	0	338.32749180001	338.527490600012
296.279	0.2	579	16	0	16	3	9	6	0	0	0	stim010_stimuli_original_vehicles_boats_2.png	G	0	0	0	338.727501100046	338.927503500017
296.679	0.2	580	16	0	16	4	11	7	0	0	0	stim012_stimuli_original_vehicles_boats_4.png	J	0	0	0	339.127529900055	339.32751240005
297.079	0.2	581	16	0	16	5	6	11	1	0	0	stim007_stimuli_original_animals_fish_3.png	R	0	0	0	339.527524300036	339.727507500036
297.479	0.2	582	16	0	16	6	15	3	0	0	0	stim016_stimuli_original_vehicles_planes_4.png	D	0	0	0	339.927539000055	340.127533900028
297.879	0.2	583	16	0	16	7	6	14	1	0	1	stim007_stimuli_original_animals_fish_3.png	V	0	0	0	340.327551499999	340.527546300029
298.279	0.2	584	16	0	16	8	5	4	0	0	0	stim006_stimuli_original_animals_fish_2.png	E	0	0	0	340.727558500017	340.927538800053
298.679	0.2	585	16	0	16	9	1	5	0	0	0	stim002_stimuli_original_animals_birds_2.png	F	0	0	0	341.127564600029	341.32754030003
299.079	0.2	586	16	0	16	10	0	13	0	0	0	stim001_stimuli_original_animals_birds_1.png	U	0	0	0	341.527578400041	341.727595700009
299.479	0.2	587	16	0	16	11	7	9	0	0	0	stim008_stimuli_original_animals_fish_4.png	L	0	0	0	341.927591000043	342.127606100054
299.879	0.2	588	16	0	16	12	8	3	0	1	0	stim009_stimuli_original_vehicles_boats_1.png	D	0	0	0	342.327597000054	342.527598400018
300.279	0.2	589	16	0	16	13	6	10	0	0	0	stim007_stimuli_original_animals_fish_3.png	Q	0	0	0	342.727607000037	342.9276082
300.679	0.2	590	16	0	16	14	4	3	0	1	0	stim005_stimuli_original_animals_fish_1.png	D	0	0	0	343.127616700018	343.327616700029
301.079	0.2	591	16	0	16	15	3	0	0	0	0	stim004_stimuli_original_animals_birds_4.png	A	NaN	343.71941900003	0	343.5276266	343.727624600055
301.479	0.2	592	16	0	16	16	2	1	0	0	0	stim003_stimuli_original_animals_birds_3.png	B	0	0	0	343.927619200025	344.127633000026
301.879	0.2	593	16	0	16	17	14	8	0	0	0	stim015_stimuli_original_vehicles_planes_3.png	K	0	0	0	344.327643600001	344.527648200048
302.279	0.2	594	16	0	16	18	8	14	0	0	0	stim009_stimuli_original_vehicles_boats_1.png	V	0	0	0	344.727656200004	344.927663700015
302.679	0.2	595	16	0	16	19	1	2	0	0	0	stim002_stimuli_original_animals_birds_2.png	C	0	0	0	345.127661300008	345.327660500014
303.079	0.2	596	16	0	16	20	0	3	0	0	0	stim001_stimuli_original_animals_birds_1.png	D	0	0	0	345.527674500016	345.727671000001
303.479	0.2	597	16	0	16	21	3	4	1	0	0	stim004_stimuli_original_animals_birds_4.png	E	0	0	0	345.927688300028	346.127683600003
303.879	0.2	598	16	0	16	22	10	6	0	0	0	stim011_stimuli_original_vehicles_boats_3.png	G	0	0	0	346.327747500036	346.527706100023
304.279	0.2	599	16	0	16	23	3	8	1	0	1	stim004_stimuli_original_animals_birds_4.png	K	0	0	0	346.727704300021	346.927707499999
304.679	0.2	600	16	0	16	24	9	7	0	0	0	stim010_stimuli_original_vehicles_boats_2.png	J	0	0	0	347.127709300024	347.327716600033
305.079	0.2	601	16	0	16	25	13	0	0	0	0	stim014_stimuli_original_vehicles_planes_2.png	A	0	0	0	347.527727800014	347.727726300014
305.479	0.2	602	16	0	16	26	5	1	0	0	0	stim006_stimuli_original_animals_fish_2.png	B	0	0	0	347.927743000037	348.127742400044
305.879	0.2	603	16	0	16	27	4	5	0	0	0	stim005_stimuli_original_animals_fish_1.png	F	0	0	0	348.327746400028	348.52775150002
306.279	0.2	604	16	0	16	28	14	6	0	1	0	stim015_stimuli_original_vehicles_planes_3.png	G	0	0	0	348.727732800005	348.927755500015
306.679	0.2	605	16	0	16	29	3	15	0	0	0	stim004_stimuli_original_animals_birds_4.png	Y	0	0	0	349.127767400001	349.327764000045
307.079	0.2	606	16	0	16	30	11	6	0	1	0	stim012_stimuli_original_vehicles_boats_4.png	G	0	0	0	349.527776000032	349.727777799999
307.479	0.2	607	16	0	16	31	7	11	0	0	0	stim008_stimuli_original_animals_fish_4.png	R	0	0	0	349.927797500044	350.127802100033
307.879	0.2	608	16	0	16	32	6	9	0	0	0	stim007_stimuli_original_animals_fish_3.png	L	0	0	0	350.327807200025	350.527808100043
308.279	0.2	609	16	0	16	33	12	12	0	0	0	stim013_stimuli_original_vehicles_planes_1.png	T	0	0	0	350.727820500033	350.927817900025
308.679	0.2	610	16	0	16	34	2	10	0	0	0	stim003_stimuli_original_animals_birds_3.png	Q	0	0	0	351.127827400051	351.327797000005
309.079	0.2	611	16	0	16	35	15	13	0	0	0	stim016_stimuli_original_vehicles_planes_4.png	U	0	0	0	351.527837500034	351.727844700043
312.246	0.2	612	17	1	27	0	9	5	0	0	0	stim010_stimuli_original_vehicles_boats_2.png	F	0	0	0	354.694569700048	354.894558600034
312.646	0.2	613	17	1	27	1	6	15	0	0	0	stim007_stimuli_original_animals_fish_3.png	Y	0	0	0	355.09457950003	355.294579200039
313.046	0.2	614	17	1	27	2	14	6	0	0	0	stim015_stimuli_original_vehicles_planes_3.png	G	0	0	0	355.494591900031	355.694578300056
313.446	0.2	615	17	1	27	3	0	4	0	0	0	stim001_stimuli_original_animals_birds_1.png	E	0	0	0	355.894607400056	356.094599900011
313.846	0.2	616	17	1	27	4	13	12	0	0	0	stim014_stimuli_original_vehicles_planes_2.png	T	0	0	0	356.294610100042	356.494608500041
314.246	0.2	617	17	1	27	5	11	3	0	0	0	stim012_stimuli_original_vehicles_boats_4.png	D	0	0	0	356.694619200018	356.894622200052
314.646	0.2	618	17	1	27	6	3	8	0	0	0	stim004_stimuli_original_animals_birds_4.png	K	0	0	0	357.094630800013	357.294619000051
315.046	0.2	619	17	1	27	7	12	7	1	0	0	stim013_stimuli_original_vehicles_planes_1.png	J	0	0	0	357.494639400044	357.694642800023
315.446	0.2	620	17	1	27	8	10	10	0	0	0	stim011_stimuli_original_vehicles_boats_3.png	Q	0	0	0	357.894653200055	358.094650000043
315.846	0.2	621	17	1	27	9	12	14	1	0	0	stim013_stimuli_original_vehicles_planes_1.png	V	0	0	0	358.294662200031	358.494662900048
316.246	0.2	622	17	1	27	10	5	2	0	0	0	stim006_stimuli_original_animals_fish_2.png	C	0	0	0	358.694672800018	358.894672300026
316.646	0.2	623	17	1	27	11	4	1	0	0	0	stim005_stimuli_original_animals_fish_1.png	B	0	0	0	359.094680900045	359.294681500003
317.046	0.2	624	17	1	27	12	1	7	0	1	0	stim002_stimuli_original_animals_birds_2.png	J	0	0	0	359.494693100045	359.694692700054
317.446	0.2	625	17	1	27	13	15	0	0	0	0	stim016_stimuli_original_vehicles_planes_4.png	A	0	0	0	359.894701700017	360.09470310004
317.846	0.2	626	17	1	27	14	7	7	0	1	1	stim008_stimuli_original_animals_fish_4.png	J	0	0	0	360.294716400036	360.494715500041
318.246	0.2	627	17	1	27	15	2	13	0	0	0	stim003_stimuli_original_animals_birds_3.png	U	0	0	0	360.694724500005	360.894723600009
318.646	0.2	628	17	1	27	16	8	9	0	0	0	stim009_stimuli_original_vehicles_boats_1.png	L	0	0	0	361.094735400053	361.294735200005
319.046	0.2	629	17	1	27	17	12	11	0	0	0	stim013_stimuli_original_vehicles_planes_1.png	R	0	0	0	361.494738500041	361.69473290001
319.446	0.2	630	17	1	27	18	11	12	0	0	0	stim012_stimuli_original_vehicles_boats_4.png	T	0	0	0	361.894745099999	362.094744600006
319.846	0.2	631	17	1	27	19	9	8	0	0	0	stim010_stimuli_original_vehicles_boats_2.png	K	0	0	0	362.294757700001	362.494754500047
320.246	0.2	632	17	1	27	20	13	2	0	0	0	stim014_stimuli_original_vehicles_planes_2.png	C	0	0	0	362.694770100003	362.894765400037
320.646	0.2	633	17	1	27	21	7	7	1	0	0	stim008_stimuli_original_animals_fish_4.png	J	0	0	0	363.094776100013	363.294775200018
321.046	0.2	634	17	1	27	22	0	15	0	0	0	stim001_stimuli_original_animals_birds_1.png	Y	0	0	0	363.494787100004	363.694785900007
321.446	0.2	635	17	1	27	23	7	1	1	0	0	stim008_stimuli_original_animals_fish_4.png	B	0	0	0	363.894797300047	364.094798000006
321.846	0.2	636	17	1	27	24	1	4	0	0	0	stim002_stimuli_original_animals_birds_2.png	E	0	0	0	364.294808500039	364.494808100048
322.246	0.2	637	17	1	27	25	2	5	0	0	0	stim003_stimuli_original_animals_birds_3.png	F	0	0	0	364.694819400029	364.89482070005
322.646	0.2	638	17	1	27	26	14	12	0	1	0	stim015_stimuli_original_vehicles_planes_3.png	T	0	0	0	365.09482680005	365.294828800019
323.046	0.2	639	17	1	27	27	10	10	0	0	0	stim011_stimuli_original_vehicles_boats_3.png	Q	0	0	0	365.494839100051	365.694851900043
323.446	0.2	640	17	1	27	28	7	12	0	1	1	stim008_stimuli_original_animals_fish_4.png	T	0	0	0	365.894849500037	366.09484840004
323.846	0.2	641	17	1	27	29	8	3	0	0	0	stim009_stimuli_original_vehicles_boats_1.png	D	0	0	0	366.294859400019	366.494860000035
324.246	0.2	642	17	1	27	30	3	11	0	0	0	stim004_stimuli_original_animals_birds_4.png	R	0	0	0	366.694873300032	366.894869800017
324.646	0.2	643	17	1	27	31	12	13	0	0	0	stim013_stimuli_original_vehicles_planes_1.png	U	0	0	0	367.094881100056	367.294880000001
325.046	0.2	644	17	1	27	32	4	0	0	0	0	stim005_stimuli_original_animals_fish_1.png	A	0	0	0	367.494896000018	367.694890800049
325.446	0.2	645	17	1	27	33	6	14	0	0	0	stim007_stimuli_original_animals_fish_3.png	V	0	0	0	367.894905600057	368.09490060003
325.846	0.2	646	17	1	27	34	15	6	0	0	0	stim016_stimuli_original_vehicles_planes_4.png	G	0	0	0	368.294912100013	368.494911700021
326.246	0.2	647	17	1	27	35	5	9	0	0	0	stim006_stimuli_original_animals_fish_2.png	L	0	0	0	368.694923100004	368.894922500011
328.846	0.2	648	18	0	1	0	7	2	0	0	0	stim008_stimuli_original_animals_fish_4.png	C	0	0	0	371.295008300047	371.495016800007
329.246	0.2	649	18	0	1	1	9	8	0	0	0	stim010_stimuli_original_vehicles_boats_2.png	K	0	0	0	371.695001400018	371.895023600024
329.646	0.2	650	18	0	1	2	12	1	0	0	0	stim013_stimuli_original_vehicles_planes_1.png	B	0	0	0	372.095031700039	372.295035100018
330.046	0.2	651	18	0	1	3	13	5	0	0	0	stim014_stimuli_original_vehicles_planes_2.png	F	0	0	0	372.495046299999	372.695045800006
330.446	0.2	652	18	0	1	4	14	14	0	0	0	stim015_stimuli_original_vehicles_planes_3.png	V	0	0	0	372.895058200054	373.09505610005
330.847	0.2	653	18	0	1	5	5	11	0	0	0	stim006_stimuli_original_animals_fish_2.png	R	0	0	0	373.295065100014	373.495069200057
331.247	0.2	654	18	0	1	6	12	4	1	0	0	stim013_stimuli_original_vehicles_planes_1.png	E	0	0	0	373.695077000011	373.895081800001
331.647	0.2	655	18	0	1	7	4	3	0	0	0	stim005_stimuli_original_animals_fish_1.png	D	0	0	0	374.095086200046	374.295091300039
332.047	0.2	656	18	0	1	8	12	9	1	0	1	stim013_stimuli_original_vehicles_planes_1.png	L	0	0	0	374.495099100051	374.695101300022
332.447	0.2	657	18	0	1	9	6	13	0	0	0	stim007_stimuli_original_animals_fish_3.png	U	0	0	0	374.895122700022	375.095108200039
332.847	0.2	658	18	0	1	10	11	10	0	0	0	stim012_stimuli_original_vehicles_boats_4.png	Q	0	0	0	375.29510680004	375.495102900022
333.247	0.2	659	18	0	1	11	15	8	0	1	0	stim016_stimuli_original_vehicles_planes_4.png	K	0	0	0	375.695111900044	375.895113200007
333.647	0.2	660	18	0	1	12	0	6	0	0	0	stim001_stimuli_original_animals_birds_1.png	G	0	0	0	376.095124000043	376.295123200049
334.047	0.2	661	18	0	1	13	1	8	0	1	0	stim002_stimuli_original_animals_birds_2.png	K	NaN	376.487767300045	1	376.495135900041	376.695134900045
334.447	0.2	662	18	0	1	14	10	15	0	0	0	stim011_stimuli_original_vehicles_boats_3.png	Y	0	0	0	376.895173600002	377.095142800012
334.847	0.2	663	18	0	1	15	8	7	0	0	0	stim009_stimuli_original_vehicles_boats_1.png	J	0	0	0	377.295158000023	377.495166300039
335.247	0.2	664	18	0	1	16	2	12	0	0	0	stim003_stimuli_original_animals_birds_3.png	T	0	0	0	377.695165000041	377.895165500056
335.647	0.2	665	18	0	1	17	3	0	0	0	0	stim004_stimuli_original_animals_birds_4.png	A	0	0	0	378.095164500002	378.295175300038
336.047	0.2	666	18	0	1	18	0	3	0	0	0	stim001_stimuli_original_animals_birds_1.png	D	0	0	0	378.495189100038	378.695173200045
336.447	0.2	667	18	0	1	19	12	2	0	0	0	stim013_stimuli_original_vehicles_planes_1.png	C	0	0	0	378.895184700028	379.095183600031
336.847	0.2	668	18	0	1	20	7	8	0	0	0	stim008_stimuli_original_animals_fish_4.png	K	0	0	0	379.295197900035	379.495218900032
337.247	0.2	669	18	0	1	21	15	10	0	0	0	stim016_stimuli_original_vehicles_planes_4.png	Q	0	0	0	379.695205000055	379.895210100047
337.647	0.2	670	18	0	1	22	8	1	1	0	0	stim009_stimuli_original_vehicles_boats_1.png	B	0	0	0	380.095229100029	380.295218000014
338.047	0.2	671	18	0	1	23	6	0	0	0	0	stim007_stimuli_original_animals_fish_3.png	A	0	0	0	380.495227300038	380.695226100041
338.447	0.2	672	18	0	1	24	8	15	1	0	1	stim009_stimuli_original_vehicles_boats_1.png	Y	0	0	0	380.895240600046	381.09523700003
338.847	0.2	673	18	0	1	25	10	11	0	0	0	stim011_stimuli_original_vehicles_boats_3.png	R	0	0	0	381.295248700015	381.495249600033
339.247	0.2	674	18	0	1	26	13	6	0	0	0	stim014_stimuli_original_vehicles_planes_2.png	G	0	0	0	381.695281100052	381.895261500031
339.647	0.2	675	18	0	1	27	9	12	0	1	0	stim010_stimuli_original_vehicles_boats_2.png	T	0	0	0	382.095288000011	382.295273800031
340.047	0.2	676	18	0	1	28	3	4	0	0	0	stim004_stimuli_original_animals_birds_4.png	E	0	0	0	382.495280900039	382.695281500055
340.447	0.2	677	18	0	1	29	4	12	0	1	0	stim005_stimuli_original_animals_fish_1.png	T	0	0	0	382.895288900007	383.095291100035
340.847	0.2	678	18	0	1	30	11	5	0	0	0	stim012_stimuli_original_vehicles_boats_4.png	F	NaN	383.487107300025	0	383.295302700019	383.495301200019
341.247	0.2	679	18	0	1	31	14	14	0	0	0	stim015_stimuli_original_vehicles_planes_3.png	V	0	0	0	383.695323300024	383.895329200022
341.647	0.2	680	18	0	1	32	5	13	0	0	0	stim006_stimuli_original_animals_fish_2.png	U	0	0	0	384.095335400023	384.295362400007
342.047	0.2	681	18	0	1	33	1	12	0	0	0	stim002_stimuli_original_animals_birds_2.png	T	0	0	0	384.495344400057	384.695355600037
342.447	0.2	682	18	0	1	34	8	9	0	0	0	stim009_stimuli_original_vehicles_boats_1.png	L	NaN	385.087158500042	0	384.895369100035	385.095342100016
342.847	0.2	683	18	0	1	35	2	7	0	0	0	stim003_stimuli_original_animals_birds_3.png	J	0	0	0	385.295367000042	385.495386100025
345.764	0.2	684	19	1	30	0	4	5	0	0	0	stim005_stimuli_original_animals_fish_1.png	F	NaN	388.204821700056	0	388.212110200024	388.412099900015
346.164	0.2	685	19	1	30	1	1	11	0	0	0	stim002_stimuli_original_animals_birds_2.png	R	0	0	0	388.612117600045	388.812119500013
346.564	0.2	686	19	1	30	2	8	15	0	0	0	stim009_stimuli_original_vehicles_boats_1.png	Y	0	0	0	389.012131300056	389.212126800034
346.964	0.2	687	19	1	30	3	3	1	0	0	0	stim004_stimuli_original_animals_birds_4.png	B	0	0	0	389.412141500041	389.61213980004
347.364	0.2	688	19	1	30	4	12	6	0	0	0	stim013_stimuli_original_vehicles_planes_1.png	G	0	0	0	389.812180400011	390.012150300026
347.764	0.2	689	19	1	30	5	2	14	1	0	0	stim003_stimuli_original_animals_birds_3.png	V	0	0	0	390.212161700008	390.412175100006
348.164	0.2	690	19	1	30	6	13	4	0	0	0	stim014_stimuli_original_vehicles_planes_2.png	E	0	0	0	390.612168900028	390.81217020005
348.564	0.2	691	19	1	30	7	2	7	1	0	0	stim003_stimuli_original_animals_birds_3.png	J	0	0	0	391.012184200052	391.212184400007
348.964	0.2	692	19	1	30	8	9	10	0	0	0	stim010_stimuli_original_vehicles_boats_2.png	Q	0	0	0	391.412200900028	391.612194400048
349.364	0.2	693	19	1	30	9	11	14	0	1	0	stim012_stimuli_original_vehicles_boats_4.png	V	0	0	0	391.812204700022	392.012205200037
349.764	0.2	694	19	1	30	10	7	13	0	0	0	stim008_stimuli_original_animals_fish_4.png	U	0	0	0	392.212215100008	392.412226700049
350.164	0.2	695	19	1	30	11	2	14	0	1	1	stim003_stimuli_original_animals_birds_3.png	V	0	0	0	392.612227500009	392.812226500013
350.564	0.2	696	19	1	30	12	5	0	0	0	0	stim006_stimuli_original_animals_fish_2.png	A	NaN	393.204035800009	1	393.012244000041	393.212243900052
350.964	0.2	697	19	1	30	13	15	12	0	0	0	stim016_stimuli_original_vehicles_planes_4.png	T	0	0	0	393.412248800043	393.612243900017
351.364	0.2	698	19	1	30	14	6	9	0	0	0	stim007_stimuli_original_animals_fish_3.png	L	0	0	0	393.812258200021	394.012257000024
351.764	0.2	699	19	1	30	15	0	2	0	0	0	stim001_stimuli_original_animals_birds_1.png	C	0	0	0	394.212269200012	394.412266500003
352.164	0.2	700	19	1	30	16	10	8	0	0	0	stim011_stimuli_original_vehicles_boats_3.png	K	0	0	0	394.612289400015	394.812278400001
352.564	0.2	701	19	1	30	17	14	3	0	0	0	stim015_stimuli_original_vehicles_planes_3.png	D	0	0	0	395.012289800041	395.212305400055
352.964	0.2	702	19	1	30	18	3	14	0	0	0	stim004_stimuli_original_animals_birds_4.png	V	0	0	0	395.412303900055	395.612297600019
353.364	0.2	703	19	1	30	19	8	10	0	0	0	stim009_stimuli_original_vehicles_boats_1.png	Q	NaN	396.004105500004	0	395.812311300018	396.012309500016
353.764	0.2	704	19	1	30	20	2	0	0	0	0	stim003_stimuli_original_animals_birds_3.png	A	0	0	0	396.212324400025	396.41232090001
354.164	0.2	705	19	1	30	21	9	6	0	0	0	stim010_stimuli_original_vehicles_boats_2.png	G	0	0	0	396.612329900032	396.812330900051
354.564	0.2	706	19	1	30	22	12	15	0	0	0	stim013_stimuli_original_vehicles_planes_1.png	Y	0	0	0	397.012342600035	397.212334200041
354.964	0.2	707	19	1	30	23	0	5	0	0	0	stim001_stimuli_original_animals_birds_1.png	F	0	0	0	397.412350800005	397.612350200012
355.364	0.2	708	19	1	30	24	14	2	1	0	0	stim015_stimuli_original_vehicles_planes_3.png	C	0	0	0	397.812399400049	398.012362000009
355.764	0.2	709	19	1	30	25	13	7	0	0	0	stim014_stimuli_original_vehicles_planes_2.png	J	0	0	0	398.212372900045	398.412372400053
356.164	0.2	710	19	1	30	26	14	11	1	0	0	stim015_stimuli_original_vehicles_planes_3.png	R	0	0	0	398.612383300031	398.812381100026
356.564	0.2	711	19	1	30	27	10	9	0	0	0	stim011_stimuli_original_vehicles_boats_3.png	L	0	0	0	399.012393900019	399.212393500027
356.964	0.2	712	19	1	30	28	7	2	0	1	0	stim008_stimuli_original_animals_fish_4.png	C	0	0	0	399.412403200055	399.612405500025
357.364	0.2	713	19	1	30	29	4	13	0	0	0	stim005_stimuli_original_animals_fish_1.png	U	0	0	0	399.812437300046	400.012414199999
357.764	0.2	714	19	1	30	30	14	2	0	1	1	stim015_stimuli_original_vehicles_planes_3.png	C	0	0	0	400.212427900056	400.412438500032
358.164	0.2	715	19	1	30	31	6	12	0	0	0	stim007_stimuli_original_animals_fish_3.png	T	NaN	400.804230900016	1	400.612435600022	400.81243510003
358.564	0.2	716	19	1	30	32	1	3	0	0	0	stim002_stimuli_original_animals_birds_2.png	D	0	0	0	401.012447700021	401.212445400015
358.964	0.2	717	19	1	30	33	15	8	0	0	0	stim016_stimuli_original_vehicles_planes_4.png	K	0	0	0	401.412460100022	401.612456600007
359.364	0.2	718	19	1	30	34	11	1	0	0	0	stim012_stimuli_original_vehicles_boats_4.png	B	0	0	0	401.812469000055	402.012469900015
359.764	0.2	719	19	1	30	35	5	4	0	0	0	stim006_stimuli_original_animals_fish_2.png	E	0	0	0	402.212476100016	402.412492200034
364.564	0.2	720	20	0	39	0	15	13	0	0	0	stim016_stimuli_original_vehicles_planes_4.png	U	0	0	0	407.012600800022	407.212594300043
364.964	0.2	721	20	0	39	1	6	10	0	0	0	stim007_stimuli_original_animals_fish_3.png	Q	0	0	0	407.412602600001	407.61260220001
365.364	0.2	722	20	0	39	2	10	11	0	0	0	stim011_stimuli_original_vehicles_boats_3.png	R	0	0	0	407.812647300016	408.012611200043
365.764	0.2	723	20	0	39	3	1	9	0	0	0	stim002_stimuli_original_animals_birds_2.png	L	0	0	0	408.212622800027	408.412627900019
366.164	0.2	724	20	0	39	4	4	15	0	0	0	stim005_stimuli_original_animals_fish_1.png	Y	0	0	0	408.612633000012	408.812634500035
366.564	0.2	725	20	0	39	5	7	1	0	1	0	stim008_stimuli_original_animals_fish_4.png	B	0	0	0	409.012645700015	409.212650100002
366.964	0.2	726	20	0	39	6	3	2	0	0	0	stim004_stimuli_original_animals_birds_4.png	C	0	0	0	409.412654800049	409.612654600001
367.364	0.2	727	20	0	39	7	12	1	0	1	0	stim013_stimuli_original_vehicles_planes_1.png	B	0	0	0	409.812671200023	410.012665900053
367.764	0.2	728	20	0	39	8	0	5	0	0	0	stim001_stimuli_original_animals_birds_1.png	F	0	0	0	410.212675600022	410.412689600023
368.164	0.2	729	20	0	39	9	9	7	0	0	0	stim010_stimuli_original_vehicles_boats_2.png	J	0	0	0	410.612687700021	410.812688200036
368.564	0.2	730	20	0	39	10	15	6	1	0	0	stim016_stimuli_original_vehicles_planes_4.png	G	0	0	0	411.012704400055	411.212695599999
368.964	0.2	731	20	0	39	11	8	8	0	0	0	stim009_stimuli_original_vehicles_boats_1.png	K	0	0	0	411.412706100033	411.612704900035
369.364	0.2	732	20	0	39	12	15	1	1	0	1	stim016_stimuli_original_vehicles_planes_4.png	B	0	0	0	411.812721900002	412.012715600024
369.764	0.2	733	20	0	39	13	2	14	0	0	0	stim003_stimuli_original_animals_birds_3.png	V	0	0	0	412.212727400009	412.412729800039
370.164	0.2	734	20	0	39	14	14	12	0	0	0	stim015_stimuli_original_vehicles_planes_3.png	T	0	0	0	412.61277300003	412.812740100024
370.564	0.2	735	20	0	39	15	11	3	0	0	0	stim012_stimuli_original_vehicles_boats_4.png	D	0	0	0	413.012749400048	413.212765100005
370.964	0.2	736	20	0	39	16	13	0	0	0	0	stim014_stimuli_original_vehicles_planes_2.png	A	0	0	0	413.412759900035	413.612773100031
371.364	0.2	737	20	0	39	17	5	4	0	0	0	stim006_stimuli_original_animals_fish_2.png	E	0	0	0	413.812769800017	414.012766800006
371.764	0.2	738	20	0	39	18	4	5	0	0	0	stim005_stimuli_original_animals_fish_1.png	F	0	0	0	414.212782800023	414.412778900005
372.164	0.2	739	20	0	39	19	0	13	0	0	0	stim001_stimuli_original_animals_birds_1.png	U	0	0	0	414.612789900042	414.812795100035
372.564	0.2	740	20	0	39	20	3	11	0	0	0	stim004_stimuli_original_animals_birds_4.png	R	0	0	0	415.012801600038	415.212825499999
372.964	0.2	741	20	0	39	21	12	14	0	0	0	stim013_stimuli_original_vehicles_planes_1.png	V	0	0	0	415.412810700014	415.612811500032
373.364	0.2	742	20	0	39	22	14	2	0	0	0	stim015_stimuli_original_vehicles_planes_3.png	C	0	0	0	415.812848700036	416.012820200005
373.764	0.2	743	20	0	39	23	1	15	0	1	0	stim002_stimuli_original_animals_birds_2.png	Y	0	0	0	416.212832600053	416.412835900031
374.164	0.2	744	20	0	39	24	8	8	0	0	0	stim009_stimuli_original_vehicles_boats_1.png	K	0	0	0	416.612842000031	416.812843899999
374.564	0.2	745	20	0	39	25	6	15	0	1	0	stim007_stimuli_original_animals_fish_3.png	Y	0	0	0	417.012853300024	417.212852000026
374.964	0.2	746	20	0	39	26	7	9	0	0	0	stim008_stimuli_original_animals_fish_4.png	L	NaN	417.604657600052	0	417.412864500016	417.612865400035
375.364	0.2	747	20	0	39	27	5	0	0	0	0	stim006_stimuli_original_animals_fish_2.png	A	0	0	0	417.812891800015	418.0128731
375.764	0.2	748	20	0	39	28	1	12	1	0	0	stim002_stimuli_original_animals_birds_2.png	T	0	0	0	418.212885200046	418.412888100022
376.164	0.2	749	20	0	39	29	2	3	0	0	0	stim003_stimuli_original_animals_birds_3.png	D	0	0	0	418.612895200029	418.812901000027
376.564	0.2	750	20	0	39	30	1	7	1	0	1	stim002_stimuli_original_animals_birds_2.png	J	0	0	0	419.012906700023	419.212904400018
376.964	0.2	751	20	0	39	31	15	4	0	0	0	stim016_stimuli_original_vehicles_planes_4.png	E	0	0	0	419.412918700022	419.612914900004
377.364	0.2	752	20	0	39	32	9	1	0	0	0	stim010_stimuli_original_vehicles_boats_2.png	B	0	0	0	419.812929800013	420.012947400042
377.764	0.2	753	20	0	39	33	11	10	0	0	0	stim012_stimuli_original_vehicles_boats_4.png	Q	0	0	0	420.212940100057	420.412945600052
378.164	0.2	754	20	0	39	34	10	6	0	0	0	stim011_stimuli_original_vehicles_boats_3.png	G	0	0	0	420.612948500027	420.812947900034
378.564	0.2	755	20	0	39	35	13	15	0	0	0	stim014_stimuli_original_vehicles_planes_2.png	Y	0	0	0	421.012964300055	421.21295820002
381.748	0.2	756	21	1	32	0	5	8	0	0	0	stim006_stimuli_original_animals_fish_2.png	K	0	0	0	424.196390199999	424.396386100037
382.148	0.2	757	21	1	32	1	10	15	0	0	0	stim011_stimuli_original_vehicles_boats_3.png	Y	0	0	0	424.596395200002	424.796396100021
382.548	0.2	758	21	1	32	2	2	9	0	0	0	stim003_stimuli_original_animals_birds_3.png	L	0	0	0	424.996407800005	425.196408900025
382.948	0.2	759	21	1	32	3	0	0	0	0	0	stim001_stimuli_original_animals_birds_1.png	A	0	0	0	425.396419900004	425.596415100037
383.348	0.2	760	21	1	32	4	13	14	0	0	0	stim014_stimuli_original_vehicles_planes_2.png	V	0	0	0	425.796427700028	425.996427100035
383.748	0.2	761	21	1	32	5	14	7	0	0	0	stim015_stimuli_original_vehicles_planes_3.png	J	0	0	0	426.196429200005	426.396427
384.148	0.2	762	21	1	32	6	1	3	0	0	0	stim002_stimuli_original_animals_birds_2.png	D	0	0	0	426.596436000022	426.796444900043
384.548	0.2	763	21	1	32	7	3	6	0	0	0	stim004_stimuli_original_animals_birds_4.png	G	0	0	0	426.996450200037	427.196458900056
384.948	0.2	764	21	1	32	8	12	5	0	0	0	stim013_stimuli_original_vehicles_planes_1.png	F	0	0	0	427.396458100004	427.596455400053
385.348	0.2	765	21	1	32	9	11	13	0	0	0	stim012_stimuli_original_vehicles_boats_4.png	U	0	0	0	427.796466900036	427.996468800004
385.748	0.2	766	21	1	32	10	14	4	1	0	0	stim015_stimuli_original_vehicles_planes_3.png	E	0	0	0	428.196478900034	428.396479700052
386.148	0.2	767	21	1	32	11	4	6	0	1	0	stim005_stimuli_original_animals_fish_1.png	G	0	0	0	428.59648930002	428.796489500033
386.548	0.2	768	21	1	32	12	14	2	1	0	0	stim015_stimuli_original_vehicles_planes_3.png	C	0	0	0	428.996501000016	429.196499600017
386.948	0.2	769	21	1	32	13	6	6	0	1	1	stim007_stimuli_original_animals_fish_3.png	G	0	0	0	429.39651240001	429.596508600051
387.348	0.2	770	21	1	32	14	7	10	0	0	0	stim008_stimuli_original_animals_fish_4.png	Q	NaN	429.988316700037	1	429.796522900055	429.996532200021
387.748	0.2	771	21	1	32	15	9	1	0	0	0	stim010_stimuli_original_vehicles_boats_2.png	B	0	0	0	430.19653320004	430.396530200029
388.148	0.2	772	21	1	32	16	8	11	0	0	0	stim009_stimuli_original_vehicles_boats_1.png	R	0	0	0	430.596541000006	430.796539700008
388.548	0.2	773	21	1	32	17	15	12	0	0	0	stim016_stimuli_original_vehicles_planes_4.png	T	0	0	0	430.996552700002	431.196552600013
388.948	0.2	774	21	1	32	18	12	15	0	0	0	stim013_stimuli_original_vehicles_planes_1.png	Y	0	0	0	431.396562000038	431.596560900041
389.348	0.2	775	21	1	32	19	11	8	0	0	0	stim012_stimuli_original_vehicles_boats_4.png	K	0	0	0	431.796571700019	431.996573200042
389.748	0.2	776	21	1	32	20	1	9	0	0	0	stim002_stimuli_original_animals_birds_2.png	L	0	0	0	432.196583700017	432.396583600028
390.148	0.2	777	21	1	32	21	10	7	0	0	0	stim011_stimuli_original_vehicles_boats_3.png	J	0	0	0	432.596594200004	432.796592700004
390.548	0.2	778	21	1	32	22	6	6	1	0	0	stim007_stimuli_original_animals_fish_3.png	G	0	0	0	432.996603700041	433.196604299999
390.948	0.2	779	21	1	32	23	2	14	0	1	0	stim003_stimuli_original_animals_birds_3.png	V	0	0	0	433.396615500038	433.596614400041
391.348	0.2	780	21	1	32	24	6	4	1	0	0	stim007_stimuli_original_animals_fish_3.png	E	0	0	0	433.796626200026	433.996624600026
391.748	0.2	781	21	1	32	25	4	14	0	1	1	stim005_stimuli_original_animals_fish_1.png	V	0	0	0	434.196638300025	434.396635700017
392.148	0.2	782	21	1	32	26	13	11	0	0	0	stim014_stimuli_original_vehicles_planes_2.png	R	NaN	434.589342200023	1	434.596679400012	434.796678600018
392.548	0.2	783	21	1	32	27	5	12	0	0	0	stim006_stimuli_original_animals_fish_2.png	T	0	0	0	434.996692100016	435.196691600024
392.948	0.2	784	21	1	32	28	6	3	0	0	0	stim007_stimuli_original_animals_fish_3.png	D	0	0	0	435.396701400052	435.596697300032
393.348	0.2	785	21	1	32	29	3	1	0	0	0	stim004_stimuli_original_animals_birds_4.png	B	0	0	0	435.796707200003	435.99670790002
393.748	0.2	786	21	1	32	30	7	14	0	0	0	stim008_stimuli_original_animals_fish_4.png	V	0	0	0	436.196727100003	436.396722000034
394.148	0.2	787	21	1	32	31	14	13	0	0	0	stim015_stimuli_original_vehicles_planes_3.png	U	0	0	0	436.596714100044	436.796734800038
394.548	0.2	788	21	1	32	32	0	0	0	0	0	stim001_stimuli_original_animals_birds_1.png	A	0	0	0	436.996743900003	437.196739500039
394.948	0.2	789	21	1	32	33	9	2	0	0	0	stim010_stimuli_original_vehicles_boats_2.png	C	0	0	0	437.396751500026	437.596749600023
395.348	0.2	790	21	1	32	34	15	10	0	0	0	stim016_stimuli_original_vehicles_planes_4.png	Q	0	0	0	437.79676160001	437.996762300027
395.748	0.2	791	21	1	32	35	8	5	0	0	0	stim009_stimuli_original_vehicles_boats_1.png	F	0	0	0	438.196773000003	438.396771800006
398.615	0.2	792	22	0	12	0	8	4	0	0	0	stim009_stimuli_original_vehicles_boats_1.png	E	0	0	0	441.063496700022	441.263492500002
399.015	0.2	793	22	0	12	1	6	0	0	0	0	stim007_stimuli_original_animals_fish_3.png	A	0	0	0	441.463504700048	441.663492800028
399.415	0.2	794	22	0	12	2	9	6	0	0	0	stim010_stimuli_original_vehicles_boats_2.png	G	0	0	0	441.863513600023	442.063526700018
399.815	0.2	795	22	0	12	3	0	7	0	0	0	stim001_stimuli_original_animals_birds_1.png	J	0	0	0	442.263526100025	442.463525700034
400.215	0.2	796	22	0	12	4	12	13	0	0	0	stim013_stimuli_original_vehicles_planes_1.png	U	0	0	0	442.663535800006	442.863536400022
400.615	0.2	797	22	0	12	5	5	2	0	1	0	stim006_stimuli_original_animals_fish_2.png	C	0	0	0	443.063542500022	443.263534700032
401.015	0.2	798	22	0	12	6	1	14	0	0	0	stim002_stimuli_original_animals_birds_2.png	V	0	0	0	443.463545900013	443.663543900009
401.415	0.2	799	22	0	12	7	4	2	0	1	0	stim005_stimuli_original_animals_fish_1.png	C	0	0	0	443.863565600011	444.063568300044
401.815	0.2	800	22	0	12	8	11	3	0	0	0	stim012_stimuli_original_vehicles_boats_4.png	D	0	0	0	444.263584900007	444.463579900039
