onset	duration	eventnumber	sequencenumber	condition	streamnumber	stimnumber	objectstimnumber	letterstimnumber	objecttarget	lettertarget	is2back	objectstim	letterstim	response	rt	correct	time_stimon	time_stimoff
11281.25	100	0	0	0	26	0	10	4	0	0	0	stim011_stimuli_original_vehicles_boats_3.png	E	0	0	0	22.7734066999983	22.9737484000216
11381.25	100	1	0	0	26	1	4	1	0	0	0	stim005_stimuli_original_animals_fish_1.png	B	0	0	0	23.1734078000009	23.3733929000155
11481.25	100	2	0	0	26	2	3	14	0	0	0	stim004_stimuli_original_animals_birds_4.png	V	0	0	0	23.5734025000129	23.7734005000093
11581.25	100	3	0	0	26	3	5	7	0	0	0	stim006_stimuli_original_animals_fish_2.png	J	0	0	0	23.9734125999967	24.1734098000161
11681.25	100	4	0	0	26	4	13	2	0	0	0	stim014_stimuli_original_vehicles_planes_2.png	C	0	0	0	24.3734209999966	24.5734196999983
11781.25	100	5	0	0	26	5	2	13	0	0	0	stim003_stimuli_original_animals_birds_3.png	U	0	0	0	24.7734320000163	24.9734530000133
11881.25	100	6	0	0	26	6	11	8	0	0	0	stim012_stimuli_original_vehicles_boats_4.png	K	0	0	0	25.1734483000182	25.3734535000112
11981.25	100	7	0	0	26	7	0	0	0	1	0	stim001_stimuli_original_animals_birds_1.png	A	0	0	0	25.5734486000147	25.773452399997
12081.25	100	8	0	0	26	8	2	5	1	0	0	stim003_stimuli_original_animals_birds_3.png	F	0	0	0	25.9734581999946	26.1734590000124
12181.25	100	9	0	0	26	9	6	0	0	1	0	stim007_stimuli_original_animals_fish_3.png	A	0	0	0	26.3734700000205	26.5734674000123
12281.25	100	10	0	0	26	10	2	9	1	0	1	stim003_stimuli_original_animals_birds_3.png	L	0	0	0	26.7734779000166	26.9734783000022
12381.25	100	11	0	0	26	11	15	12	0	0	0	stim016_stimuli_original_vehicles_planes_4.png	T	d	27.3652958000021	1	27.1734896000125	27.3735061000043
12481.25	100	12	0	0	26	12	12	11	0	0	0	stim013_stimuli_original_vehicles_planes_1.png	R	0	0	0	27.5734997999971	27.7734939999937
12581.25	100	13	0	0	26	13	7	0	0	0	0	stim008_stimuli_original_animals_fish_4.png	A	0	0	0	27.9735263000184	28.1735077000048
12681.25	100	14	0	0	26	14	8	10	0	0	0	stim009_stimuli_original_vehicles_boats_1.png	Q	0	0	0	28.3737538999994	28.5735212000145
12781.25	100	15	0	0	26	15	14	3	0	0	0	stim015_stimuli_original_vehicles_planes_3.png	D	0	0	0	28.7735284999944	28.9735277
12881.25	100	16	0	0	26	16	1	6	0	0	0	stim002_stimuli_original_animals_birds_2.png	G	0	0	0	29.1735362000181	29.3735355999961
12981.25	100	17	0	0	26	17	9	15	0	0	0	stim010_stimuli_original_vehicles_boats_2.png	Y	0	0	0	29.5735562000191	29.7735448000021
13081.25	100	18	0	0	26	18	15	9	0	0	0	stim016_stimuli_original_vehicles_planes_4.png	L	0	0	0	29.9735700000019	30.1735556000203
13181.25	100	19	0	0	26	19	6	1	0	0	0	stim007_stimuli_original_animals_fish_3.png	B	0	0	0	30.3735665999993	30.5735643999942
13281.25	100	20	0	0	26	20	3	14	0	0	0	stim004_stimuli_original_animals_birds_4.png	V	0	0	0	30.7735761000076	30.9735738000018
13381.25	100	21	0	0	26	21	10	8	0	0	0	stim011_stimuli_original_vehicles_boats_3.png	K	0	0	0	31.1735840000038	31.373582900007
13481.25	100	22	0	0	26	22	0	7	0	0	0	stim001_stimuli_original_animals_birds_1.png	J	0	0	0	31.5735942000174	31.7735919000115
13581.25	100	23	0	0	26	23	11	12	0	0	0	stim012_stimuli_original_vehicles_boats_4.png	T	0	0	0	31.9736068000202	32.1736392000166
13681.25	100	24	0	0	26	24	12	15	0	0	0	stim013_stimuli_original_vehicles_planes_1.png	Y	0	0	0	32.3736143000133	32.5736151000019
13781.25	100	25	0	0	26	25	9	2	0	1	0	stim010_stimuli_original_vehicles_boats_2.png	C	0	0	0	32.7736503000197	32.9736221000203
13881.25	100	26	0	0	26	26	0	6	1	0	0	stim001_stimuli_original_animals_birds_1.png	G	0	0	0	33.1736441999965	33.3736308999942
13981.25	100	27	0	0	26	27	5	2	0	1	0	stim006_stimuli_original_animals_fish_2.png	C	0	0	0	33.5736613000045	33.7736422000162
14081.25	100	28	0	0	26	28	0	0	1	0	1	stim001_stimuli_original_animals_birds_1.png	A	0	0	0	33.9736525000189	34.1736493000062
14181.25	100	29	0	0	26	29	8	11	0	0	0	stim009_stimuli_original_vehicles_boats_1.png	R	0	0	0	34.3736599000113	34.5736591000168
14281.25	100	30	0	0	26	30	13	2	0	0	0	stim014_stimuli_original_vehicles_planes_2.png	C	0	0	0	34.7736990000121	34.9736701000074
14381.25	100	31	0	0	26	31	2	13	0	0	0	stim003_stimuli_original_animals_birds_3.png	U	0	0	0	35.1736833000032	35.3737108000205
14481.25	100	32	0	0	26	32	7	5	0	0	0	stim008_stimuli_original_animals_fish_4.png	F	0	0	0	35.5736899000185	35.7736973999999
14581.25	100	33	0	0	26	33	14	3	0	0	0	stim015_stimuli_original_vehicles_planes_3.png	D	0	0	0	35.9736991999962	36.1737021000008
14681.25	100	34	0	0	26	34	1	4	0	0	0	stim002_stimuli_original_animals_birds_2.png	E	0	0	0	36.3737098000129	36.5737105000007
14781.25	100	35	0	0	26	35	4	10	0	0	0	stim005_stimuli_original_animals_fish_1.png	Q	0	0	0	36.7737263000163	36.9737171000161
16043.75	100	36	1	1	17	0	3	2	0	0	0	stim004_stimuli_original_animals_birds_4.png	C	0	0	0	41.8238421000133	42.0238409000158
16143.75	100	37	1	1	17	1	11	14	0	0	0	stim012_stimuli_original_vehicles_boats_4.png	V	0	0	0	42.2238499000086	42.4238921000215
16243.75	100	38	1	1	17	2	8	6	0	0	0	stim009_stimuli_original_vehicles_boats_1.png	G	0	0	0	42.6238603999955	42.8238651000138
16343.75	100	39	1	1	17	3	2	10	0	0	0	stim003_stimuli_original_animals_birds_3.png	Q	0	0	0	43.0238717000175	43.2238697000139
16443.75	100	40	1	1	17	4	12	3	0	0	0	stim013_stimuli_original_vehicles_planes_1.png	D	0	0	0	43.423878600006	43.623880900006
16543.75	100	41	1	1	17	5	0	9	0	0	0	stim001_stimuli_original_animals_birds_1.png	L	0	0	0	43.8238886000181	44.0238886000006
16643.75	100	42	1	1	17	6	7	13	0	0	0	stim008_stimuli_original_animals_fish_4.png	U	0	0	0	44.2238996000087	44.4238972000021
16743.75	100	43	1	1	17	7	14	8	0	0	0	stim015_stimuli_original_vehicles_planes_3.png	K	0	0	0	44.6239103999978	44.8239071000135
16843.75	100	44	1	1	17	8	6	11	0	0	0	stim007_stimuli_original_animals_fish_3.png	R	0	0	0	45.0239185999963	45.2239181000041
16943.75	100	45	1	1	17	9	1	15	0	0	0	stim002_stimuli_original_animals_birds_2.png	Y	0	0	0	45.4239269999962	45.6239273000101
17043.75	100	46	1	1	17	10	11	1	1	0	0	stim012_stimuli_original_vehicles_boats_4.png	B	0	0	0	45.8239431999973	46.0239388000045
17143.75	100	47	1	1	17	11	5	4	0	0	0	stim006_stimuli_original_animals_fish_2.png	E	0	0	0	46.2239480999997	46.4239479000098
17243.75	100	48	1	1	17	12	11	8	1	1	0	stim012_stimuli_original_vehicles_boats_4.png	K	0	0	0	46.6239573000057	46.8239619999949
17343.75	100	49	1	1	17	13	13	0	0	0	0	stim014_stimuli_original_vehicles_planes_2.png	A	0	0	0	47.0239679000224	47.2239673000004
17443.75	100	50	1	1	17	14	10	8	0	1	1	stim011_stimuli_original_vehicles_boats_3.png	K	0	0	0	47.42397600002	47.6239757000003
17543.75	100	51	1	1	17	15	9	12	0	0	0	stim010_stimuli_original_vehicles_boats_2.png	T	d	48.0157751000079	1	47.8239863000053	48.0239852000086
17643.75	100	52	1	1	17	16	15	7	0	0	0	stim016_stimuli_original_vehicles_planes_4.png	J	0	0	0	48.2240072000131	48.4239976000099
17743.75	100	53	1	1	17	17	4	5	0	0	0	stim005_stimuli_original_animals_fish_1.png	F	0	0	0	48.6240054999944	48.8240050000022
17843.75	100	54	1	1	17	18	5	4	0	0	0	stim006_stimuli_original_animals_fish_2.png	E	0	0	0	49.0240143999981	49.2240130999999
17943.75	100	55	1	1	17	19	7	15	0	0	0	stim008_stimuli_original_animals_fish_4.png	Y	0	0	0	49.4240259000217	49.6240258000034
18043.75	100	56	1	1	17	20	12	9	0	0	0	stim013_stimuli_original_vehicles_planes_1.png	L	0	0	0	49.8240339000185	50.0240380000032
18143.75	100	57	1	1	17	21	8	10	1	0	0	stim009_stimuli_original_vehicles_boats_1.png	Q	0	0	0	50.2240443000046	50.4240417999972
18243.75	100	58	1	1	17	22	0	13	0	0	0	stim001_stimuli_original_animals_birds_1.png	U	0	0	0	50.6240540000144	50.8240527000162
18343.75	100	59	1	1	17	23	8	11	1	1	0	stim009_stimuli_original_vehicles_boats_1.png	R	0	0	0	51.0240687000041	51.2240631000022
18443.75	100	60	1	1	17	24	4	5	0	0	0	stim005_stimuli_original_animals_fish_1.png	F	0	0	0	51.4240717000212	51.6240719000052
18543.75	100	61	1	1	17	25	1	11	0	1	1	stim002_stimuli_original_animals_birds_2.png	R	0	0	0	51.8240817000042	52.0240823000204
18643.75	100	62	1	1	17	26	15	1	0	0	0	stim016_stimuli_original_vehicles_planes_4.png	B	0	0	0	52.2240966999962	52.4241341000015
18743.75	100	63	1	1	17	27	11	6	0	0	0	stim012_stimuli_original_vehicles_boats_4.png	G	0	0	0	52.6241021000023	52.8241008000041
18843.75	100	64	1	1	17	28	8	14	0	0	0	stim009_stimuli_original_vehicles_boats_1.png	V	0	0	0	53.024112300016	53.2241105000139
18943.75	100	65	1	1	17	29	13	7	0	0	0	stim014_stimuli_original_vehicles_planes_2.png	J	0	0	0	53.424121500022	53.6241194000177
19043.75	100	66	1	1	17	30	9	0	0	0	0	stim010_stimuli_original_vehicles_boats_2.png	A	0	0	0	53.824131500005	54.0241304000083
19143.75	100	67	1	1	17	31	3	12	0	0	0	stim004_stimuli_original_animals_birds_4.png	T	0	0	0	54.2241413000156	54.4241402000189
19243.75	100	68	1	1	17	32	10	2	0	0	0	stim011_stimuli_original_vehicles_boats_3.png	C	0	0	0	54.6241503000201	54.8241485000181
19343.75	100	69	1	1	17	33	6	8	0	0	0	stim007_stimuli_original_animals_fish_3.png	K	0	0	0	55.0241603000031	55.2241591000056
19443.75	100	70	1	1	17	34	14	11	0	0	0	stim015_stimuli_original_vehicles_planes_3.png	R	0	0	0	55.4241695000092	55.624167300004
19543.75	100	71	1	1	17	35	2	3	0	0	0	stim003_stimuli_original_animals_birds_3.png	D	0	0	0	55.8241787000152	56.0241806000122
20573	100	72	2	0	34	0	11	1	0	0	0	stim012_stimuli_original_vehicles_boats_4.png	B	0	0	0	59.9409446000063	60.1409417999967
20673	100	73	2	0	34	1	2	5	0	0	0	stim003_stimuli_original_animals_birds_3.png	F	0	0	0	60.3409539000131	60.5409519000095
20773	100	74	2	0	34	2	3	10	0	0	0	stim004_stimuli_original_animals_birds_4.png	Q	0	0	0	60.7409633000207	60.9409608000133
20873	100	75	2	0	34	3	7	4	0	0	0	stim008_stimuli_original_animals_fish_4.png	E	0	0	0	61.1409712000168	61.340970899997
20973	100	76	2	0	34	4	11	0	1	0	0	stim012_stimuli_original_vehicles_boats_4.png	A	0	0	0	61.5409813000006	61.7409787000215
21073	100	77	2	0	34	5	13	2	0	0	0	stim014_stimuli_original_vehicles_planes_2.png	C	d	62.1327805000183	0	61.9409907000081	62.1409929000074
21173	100	78	2	0	34	6	11	11	1	0	1	stim012_stimuli_original_vehicles_boats_4.png	R	0	0	0	62.3410029000079	62.541000600002
21273	100	79	2	0	34	7	14	6	0	1	0	stim015_stimuli_original_vehicles_planes_3.png	G	0	0	0	62.741010800004	62.9410080999951
21373	100	80	2	0	34	8	10	15	0	0	0	stim011_stimuli_original_vehicles_boats_3.png	Y	d	63.3328064999951	1	63.1410193000047	63.3410216000048
21473	100	81	2	0	34	9	5	6	0	1	0	stim006_stimuli_original_animals_fish_2.png	G	0	0	0	63.5410330000159	63.7410306000093
21573	100	82	2	0	34	10	12	3	0	0	0	stim013_stimuli_original_vehicles_planes_1.png	D	0	0	0	63.9410401000059	64.1410382000031
21673	100	83	2	0	34	11	1	12	0	0	0	stim002_stimuli_original_animals_birds_2.png	T	0	0	0	64.3410499000165	64.5410477000114
21773	100	84	2	0	34	12	9	6	0	0	0	stim010_stimuli_original_vehicles_boats_2.png	G	0	0	0	64.7410572000081	64.941058299999
21873	100	85	2	0	34	13	6	8	0	0	0	stim007_stimuli_original_animals_fish_3.png	K	0	0	0	65.1410677999957	65.3410670000012
21973	100	86	2	0	34	14	0	7	0	0	0	stim001_stimuli_original_animals_birds_1.png	J	0	0	0	65.5410790000169	65.7410775000171
22073	100	87	2	0	34	15	8	14	0	0	0	stim009_stimuli_original_vehicles_boats_1.png	V	0	0	0	65.941095200018	66.1410870999971
22173	100	88	2	0	34	16	15	9	0	0	0	stim016_stimuli_original_vehicles_planes_4.png	L	0	0	0	66.3410961000191	66.5411026999936
22273	100	89	2	0	34	17	4	13	0	0	0	stim005_stimuli_original_animals_fish_1.png	U	0	0	0	66.7411307000148	66.9411101000151
22373	100	90	2	0	34	18	13	4	0	0	0	stim014_stimuli_original_vehicles_planes_2.png	E	0	0	0	67.1411172000226	67.3411154000205
22473	100	91	2	0	34	19	9	15	0	0	0	stim010_stimuli_original_vehicles_boats_2.png	Y	0	0	0	67.5411275000079	67.741125200002
22573	100	92	2	0	34	20	14	8	0	0	0	stim015_stimuli_original_vehicles_planes_3.png	K	0	0	0	67.9411401000107	68.1411334000004
22673	100	93	2	0	34	21	7	0	0	0	0	stim008_stimuli_original_animals_fish_4.png	A	0	0	0	68.3411441000062	68.5411443000194
22773	100	94	2	0	34	22	8	6	0	0	0	stim009_stimuli_original_vehicles_boats_1.png	G	0	0	0	68.7411554999999	68.9411535999971
22873	100	95	2	0	34	23	6	9	0	0	0	stim007_stimuli_original_animals_fish_3.png	L	0	0	0	69.141165500012	69.3411629000038
22973	100	96	2	0	34	24	12	1	0	0	0	stim013_stimuli_original_vehicles_planes_1.png	B	0	0	0	69.541177200008	69.7411731000175
23073	100	97	2	0	34	25	3	12	0	0	0	stim004_stimuli_original_animals_birds_4.png	T	0	0	0	69.9411843999987	70.1411834000028
23173	100	98	2	0	34	26	6	5	1	0	0	stim007_stimuli_original_animals_fish_3.png	F	d	70.344324900012	0	70.3411933000025	70.5411963000079
23273	100	99	2	0	34	27	15	10	0	0	0	stim016_stimuli_original_vehicles_planes_4.png	Q	0	0	0	70.7412049999984	70.9412014000118
23373	100	100	2	0	34	28	6	14	1	0	1	stim007_stimuli_original_animals_fish_3.png	V	0	0	0	71.1412120000168	71.3412124000024
23473	100	101	2	0	34	29	11	11	0	1	0	stim012_stimuli_original_vehicles_boats_4.png	R	0	0	0	71.5412240000151	71.7412217000092
23573	100	102	2	0	34	30	2	13	0	0	0	stim003_stimuli_original_animals_birds_3.png	U	0	0	0	71.9412325000158	72.1412331000029
23673	100	103	2	0	34	31	0	11	0	1	0	stim001_stimuli_original_animals_birds_1.png	R	0	0	0	72.3412439000094	72.5412418000051
23773	100	104	2	0	34	32	4	7	0	0	0	stim005_stimuli_original_animals_fish_1.png	J	0	0	0	72.7412524000101	72.9412499000027
23873	100	105	2	0	34	33	10	3	0	0	0	stim011_stimuli_original_vehicles_boats_3.png	D	0	0	0	73.1412634000008	73.3412604000187
23973	100	106	2	0	34	34	5	2	0	0	0	stim006_stimuli_original_animals_fish_2.png	C	0	0	0	73.5412709999946	73.741270700004
24073	100	107	2	0	34	35	1	11	0	0	0	stim002_stimuli_original_animals_birds_2.png	R	0	0	0	73.9412812000082	74.1412798000092
25077.25	100	108	3	1	18	0	4	8	0	0	0	stim005_stimuli_original_animals_fish_1.png	K	0	0	0	77.9580495000118	78.1580452000198
25177.25	100	109	3	1	18	1	3	14	0	0	0	stim004_stimuli_original_animals_birds_4.png	V	0	0	0	78.358057800011	78.5580566000135
25277.25	100	110	3	1	18	2	9	15	0	0	0	stim010_stimuli_original_vehicles_boats_2.png	Y	0	0	0	78.7580698000093	78.9580639000051
25377.25	100	111	3	1	18	3	10	9	0	0	0	stim011_stimuli_original_vehicles_boats_3.png	L	0	0	0	79.1580773000023	79.3580761000048
25477.25	100	112	3	1	18	4	7	13	0	0	0	stim008_stimuli_original_animals_fish_4.png	U	0	0	0	79.558085800003	79.7580853000109
25577.25	100	113	3	1	18	5	2	1	1	1	0	stim003_stimuli_original_animals_birds_3.png	B	0	0	0	79.9580944000045	80.1580961
25677.25	100	114	3	1	18	6	0	5	0	0	0	stim001_stimuli_original_animals_birds_1.png	F	0	0	0	80.3581054999959	80.5581040999969
25777.25	100	115	3	1	18	7	2	1	1	1	1	stim003_stimuli_original_animals_birds_3.png	B	0	0	0	80.7581140999973	80.9581125999975
25877.25	100	116	3	1	18	8	13	4	0	0	0	stim014_stimuli_original_vehicles_planes_2.png	E	d	81.3499144999951	1	81.1581242000102	81.358123700018
25977.25	100	117	3	1	18	9	8	12	0	0	0	stim009_stimuli_original_vehicles_boats_1.png	T	0	0	0	81.5581380999938	81.7581346000079
26077.25	100	118	3	1	18	10	5	6	0	0	0	stim006_stimuli_original_animals_fish_2.png	G	0	0	0	81.958143099997	82.158142500004
26177.25	100	119	3	1	18	11	6	11	0	0	0	stim007_stimuli_original_animals_fish_3.png	R	0	0	0	82.3581536000129	82.5581519000116
26277.25	100	120	3	1	18	12	15	3	0	0	0	stim016_stimuli_original_vehicles_planes_4.png	D	0	0	0	82.7581625000166	82.958174600004
26377.25	100	121	3	1	18	13	2	1	0	0	0	stim003_stimuli_original_animals_birds_3.png	B	0	0	0	83.1581731000042	83.3581711000006
26477.25	100	122	3	1	18	14	12	0	0	0	0	stim013_stimuli_original_vehicles_planes_1.png	A	0	0	0	83.5581819000072	83.758181000012
26577.25	100	123	3	1	18	15	1	2	0	0	0	stim002_stimuli_original_animals_birds_2.png	C	0	0	0	83.9581914000155	84.1581924000056
26677.25	100	124	3	1	18	16	14	10	0	0	0	stim015_stimuli_original_vehicles_planes_3.png	Q	0	0	0	84.3582027000084	84.5582013000094
26777.25	100	125	3	1	18	17	11	7	0	0	0	stim012_stimuli_original_vehicles_boats_4.png	J	0	0	0	84.7582108000061	84.9582114000223
26877.25	100	126	3	1	18	18	7	11	0	0	0	stim008_stimuli_original_animals_fish_4.png	R	0	0	0	85.1582227000035	85.3582193000184
26977.25	100	127	3	1	18	19	10	14	0	0	0	stim011_stimuli_original_vehicles_boats_3.png	V	0	0	0	85.5582438000129	85.7582301000075
27077.25	100	128	3	1	18	20	2	1	0	0	0	stim003_stimuli_original_animals_birds_3.png	B	0	0	0	85.9582410000148	86.1582392000128
27177.25	100	129	3	1	18	21	0	12	0	0	0	stim001_stimuli_original_animals_birds_1.png	T	0	0	0	86.358252200007	86.5582496999996
27277.25	100	130	3	1	18	22	1	2	0	0	0	stim002_stimuli_original_animals_birds_2.png	C	0	0	0	86.758258899994	86.9582597000117
27377.25	100	131	3	1	18	23	3	15	0	0	0	stim004_stimuli_original_animals_birds_4.png	Y	0	0	0	87.1582694000099	87.3582695000223
27477.25	100	132	3	1	18	24	11	6	0	0	0	stim012_stimuli_original_vehicles_boats_4.png	G	0	0	0	87.5582809000043	87.7582782999962
27577.25	100	133	3	1	18	25	6	5	0	0	0	stim007_stimuli_original_animals_fish_3.png	F	0	0	0	87.958289000002	88.1582882000075
27677.25	100	134	3	1	18	26	12	8	0	0	0	stim013_stimuli_original_vehicles_planes_1.png	K	0	0	0	88.3582975000027	88.5583015000157
27777.25	100	135	3	1	18	27	4	13	0	0	0	stim005_stimuli_original_animals_fish_1.png	U	0	0	0	88.758307000011	88.9583079000004
27877.25	100	136	3	1	18	28	1	2	1	1	0	stim002_stimuli_original_animals_birds_2.png	C	0	0	0	89.1583185000054	89.3583167000033
27977.5	100	137	3	1	18	29	5	0	0	0	0	stim006_stimuli_original_animals_fish_2.png	A	0	0	0	89.5583270000061	89.7583319999976
28077.5	100	138	3	1	18	30	1	2	1	1	1	stim002_stimuli_original_animals_birds_2.png	C	0	0	0	89.9583403000142	90.1583363999962
28177.5	100	139	3	1	18	31	13	7	0	0	0	stim014_stimuli_original_vehicles_planes_2.png	J	d	90.5501346999954	1	90.3583474000043	90.5583469000121
28277.5	100	140	3	1	18	32	9	10	0	0	0	stim010_stimuli_original_vehicles_boats_2.png	Q	0	0	0	90.7583683000121	90.9583569999959
28377.5	100	141	3	1	18	33	15	9	0	0	0	stim016_stimuli_original_vehicles_planes_4.png	L	0	0	0	91.158365100011	91.3583632000082
28477.5	100	142	3	1	18	34	14	3	0	0	0	stim015_stimuli_original_vehicles_planes_3.png	D	0	0	0	91.5583787000214	91.7583752000064
28577.5	100	143	3	1	18	35	8	4	0	0	0	stim009_stimuli_original_vehicles_boats_1.png	E	0	0	0	91.9583904000174	92.1583845000132
29510.75	100	144	4	0	39	0	1	0	0	0	0	stim002_stimuli_original_animals_birds_2.png	A	0	0	0	95.6918370000203	95.8918356000213
29610.75	100	145	4	0	39	1	2	7	0	0	0	stim003_stimuli_original_animals_birds_3.png	J	0	0	0	96.091845100018	96.2918418000045
29710.75	100	146	4	0	39	2	12	11	0	0	0	stim013_stimuli_original_vehicles_planes_1.png	R	0	0	0	96.4918536000187	96.6918543000065
29810.75	100	147	4	0	39	3	9	5	0	0	0	stim010_stimuli_original_vehicles_boats_2.png	F	0	0	0	96.891869700019	97.0918639000156
29910.75	100	148	4	0	39	4	8	10	0	0	0	stim009_stimuli_original_vehicles_boats_1.png	Q	0	0	0	97.2918744000199	97.4918584999978
30010.75	100	149	4	0	39	5	7	9	0	0	0	stim008_stimuli_original_animals_fish_4.png	L	0	0	0	97.691893500014	97.8918827000016
30110.75	100	150	4	0	39	6	11	8	0	1	0	stim012_stimuli_original_vehicles_boats_4.png	K	0	0	0	98.0918891000038	98.2918945999991
30210.75	100	151	4	0	39	7	12	1	1	0	0	stim013_stimuli_original_vehicles_planes_1.png	B	0	0	0	98.4918748000055	98.6918990999984
30310.75	100	152	4	0	39	8	13	8	0	1	0	stim014_stimuli_original_vehicles_planes_2.png	K	0	0	0	98.8919084000227	99.0919070999953
30410.75	100	153	4	0	39	9	12	3	1	0	1	stim013_stimuli_original_vehicles_planes_1.png	D	0	0	0	99.2919179000019	99.4919186000188
30510.75	100	154	4	0	39	10	4	2	0	0	0	stim005_stimuli_original_animals_fish_1.png	C	0	0	0	99.6919306000054	99.8919290000049
30610.75	100	155	4	0	39	11	14	8	0	0	0	stim015_stimuli_original_vehicles_planes_3.png	K	0	0	0	100.091936700017	100.291932799999
30710.75	100	156	4	0	39	12	6	15	0	0	0	stim007_stimuli_original_animals_fish_3.png	Y	0	0	0	100.49193780002	100.691954800015
30810.75	100	157	4	0	39	13	10	4	0	0	0	stim011_stimuli_original_vehicles_boats_3.png	E	0	0	0	100.89197170001	101.09196000002
30910.75	100	158	4	0	39	14	0	14	0	0	0	stim001_stimuli_original_animals_birds_1.png	V	0	0	0	101.291972000006	101.491972100019
31010.75	100	159	4	0	39	15	15	6	0	0	0	stim016_stimuli_original_vehicles_planes_4.png	G	0	0	0	101.691980500007	101.891979800013
31110.75	100	160	4	0	39	16	5	13	0	0	0	stim006_stimuli_original_animals_fish_2.png	U	0	0	0	102.091987499996	102.291989899997
31210.75	100	161	4	0	39	17	3	12	0	0	0	stim004_stimuli_original_animals_birds_4.png	T	0	0	0	102.491985900007	102.692000200012
31310.75	100	162	4	0	39	18	12	3	0	0	0	stim013_stimuli_original_vehicles_planes_1.png	D	0	0	0	102.891991900018	103.092008900014
31410.75	100	163	4	0	39	19	13	5	0	0	0	stim014_stimuli_original_vehicles_planes_2.png	F	0	0	0	103.292016199994	103.492001600011
31510.75	100	164	4	0	39	20	6	15	0	0	0	stim007_stimuli_original_animals_fish_3.png	Y	0	0	0	103.692027800018	103.892011000018
31610.75	100	165	4	0	39	21	14	0	0	0	0	stim015_stimuli_original_vehicles_planes_3.png	A	0	0	0	104.092038200004	104.292025300005
31710.75	100	166	4	0	39	22	4	10	0	0	0	stim005_stimuli_original_animals_fish_1.png	Q	0	0	0	104.492047600012	104.692047500022
31810.75	100	167	4	0	39	23	15	6	0	0	0	stim016_stimuli_original_vehicles_planes_4.png	G	0	0	0	104.892056200013	105.092048899998
31910.75	100	168	4	0	39	24	8	14	0	0	0	stim009_stimuli_original_vehicles_boats_1.png	V	0	0	0	105.292050999997	105.492073400004
32010.75	100	169	4	0	39	25	2	4	0	0	0	stim003_stimuli_original_animals_birds_3.png	E	0	0	0	105.692076100007	105.892073499999
32110.75	100	170	4	0	39	26	3	12	0	1	0	stim004_stimuli_original_animals_birds_4.png	T	0	0	0	106.092085300013	106.292087600013
32210.75	100	171	4	0	39	27	8	13	1	0	0	stim009_stimuli_original_vehicles_boats_1.png	U	0	0	0	106.492095900001	106.69209550001
32310.75	100	172	4	0	39	28	1	12	0	1	0	stim002_stimuli_original_animals_birds_2.png	T	0	0	0	106.892106200015	107.0921065
32410.75	100	173	4	0	39	29	8	11	1	0	1	stim009_stimuli_original_vehicles_boats_1.png	R	d	107.284658300021	1	107.292114600015	107.492114299996
32510.75	100	174	4	0	39	30	9	7	0	0	0	stim010_stimuli_original_vehicles_boats_2.png	J	0	0	0	107.692120699998	107.892127500003
32610.75	100	175	4	0	39	31	10	8	0	0	0	stim011_stimuli_original_vehicles_boats_3.png	K	0	0	0	108.092133099999	108.292126300017
32710.75	100	176	4	0	39	32	5	9	0	0	0	stim006_stimuli_original_animals_fish_2.png	L	0	0	0	108.492143400013	108.69214520001
32810.75	100	177	4	0	39	33	11	12	0	0	0	stim012_stimuli_original_vehicles_boats_4.png	T	0	0	0	108.892154200003	109.092152700003
32910.75	100	178	4	0	39	34	7	2	0	0	0	stim008_stimuli_original_animals_fish_4.png	C	0	0	0	109.292165299994	109.492161200003
33010.75	100	179	4	0	39	35	0	1	0	0	0	stim001_stimuli_original_animals_birds_1.png	B	0	0	0	109.692174700001	109.892172000022
34094.25	100	180	5	1	47	0	8	1	0	0	0	stim009_stimuli_original_vehicles_boats_1.png	B	0	0	0	114.025598800014	114.225596100005
34194.25	100	181	5	1	47	1	9	6	0	0	0	stim010_stimuli_original_vehicles_boats_2.png	G	0	0	0	114.425605900004	114.625605500012
34294.25	100	182	5	1	47	2	2	2	0	0	0	stim003_stimuli_original_animals_birds_3.png	C	0	0	0	114.825644600001	115.025615100021
34394.25	100	183	5	1	47	3	0	15	0	0	0	stim001_stimuli_original_animals_birds_1.png	Y	0	0	0	115.225646600011	115.425626300013
34494.25	100	184	5	1	47	4	7	14	1	0	0	stim008_stimuli_original_animals_fish_4.png	V	0	0	0	115.62563710002	115.825637400005
34594.25	100	185	5	1	47	5	14	12	0	0	0	stim015_stimuli_original_vehicles_planes_3.png	T	0	0	0	116.025645200018	116.225645600003
34694.25	100	186	5	1	47	6	7	5	1	0	0	stim008_stimuli_original_animals_fish_4.png	F	0	0	0	116.425653400016	116.625655600015
34794.25	100	187	5	1	47	7	15	0	0	0	0	stim016_stimuli_original_vehicles_planes_4.png	A	0	0	0	116.825666599994	117.025671300013
34894.25	100	188	5	1	47	8	10	7	0	0	0	stim011_stimuli_original_vehicles_boats_3.png	J	0	0	0	117.22567320001	117.425665000017
34994.25	100	189	5	1	47	9	13	12	0	1	0	stim014_stimuli_original_vehicles_planes_2.png	T	0	0	0	117.625687799999	117.825694200001
35094.25	100	190	5	1	47	10	7	10	0	0	0	stim008_stimuli_original_animals_fish_4.png	Q	0	0	0	118.025693400006	118.225692700013
35194.25	100	191	5	1	47	11	5	12	0	1	1	stim006_stimuli_original_animals_fish_2.png	T	d	118.418255800003	1	118.425702900015	118.625704100006
35294.25	100	192	5	1	47	12	11	13	0	0	0	stim012_stimuli_original_vehicles_boats_4.png	U	0	0	0	118.825716199994	119.025714100018
35394.25	100	193	5	1	47	13	3	4	0	0	0	stim004_stimuli_original_animals_birds_4.png	E	0	0	0	119.225722300005	119.425720600004
35494.25	100	194	5	1	47	14	6	3	0	0	0	stim007_stimuli_original_animals_fish_3.png	D	0	0	0	119.625734400004	119.825732199999
35594.25	100	195	5	1	47	15	1	11	0	0	0	stim002_stimuli_original_animals_birds_2.png	R	0	0	0	120.025769600004	120.225741600007
35694.25	100	196	5	1	47	16	12	9	0	0	0	stim013_stimuli_original_vehicles_planes_1.png	L	0	0	0	120.425752600015	120.625767899997
35794.25	100	197	5	1	47	17	4	8	0	0	0	stim005_stimuli_original_animals_fish_1.png	K	0	0	0	120.825781000021	121.02577170002
35894.25	100	198	5	1	47	18	8	4	0	0	0	stim009_stimuli_original_vehicles_boats_1.png	E	0	0	0	121.225772400008	121.425770300004
35994.25	100	199	5	1	47	19	9	12	0	0	0	stim010_stimuli_original_vehicles_boats_2.png	T	0	0	0	121.625783399999	121.825779400009
36094.25	100	200	5	1	47	20	11	1	0	0	0	stim012_stimuli_original_vehicles_boats_4.png	B	0	0	0	122.025789600011	122.22579180001
36194.25	100	201	5	1	47	21	3	6	0	0	0	stim004_stimuli_original_animals_birds_4.png	G	0	0	0	122.425799999997	122.625826100004
36294.25	100	202	5	1	47	22	4	3	0	0	0	stim005_stimuli_original_animals_fish_1.png	D	0	0	0	122.825809000002	123.025812500011
36394.25	100	203	5	1	47	23	13	11	0	0	0	stim014_stimuli_original_vehicles_planes_2.png	R	0	0	0	123.225840900006	123.425817800016
36494.25	100	204	5	1	47	24	12	5	1	0	0	stim013_stimuli_original_vehicles_planes_1.png	F	0	0	0	123.625827800017	123.825830600021
36594.25	100	205	5	1	47	25	10	7	0	0	0	stim011_stimuli_original_vehicles_boats_3.png	J	0	0	0	124.025839600014	124.225841000007
36694.25	100	206	5	1	47	26	12	13	1	0	0	stim013_stimuli_original_vehicles_planes_1.png	U	0	0	0	124.425847900013	124.625847699994
36794.25	100	207	5	1	47	27	7	10	0	0	0	stim008_stimuli_original_animals_fish_4.png	Q	0	0	0	124.825860700017	125.025857000001
36894.25	100	208	5	1	47	28	0	15	0	0	0	stim001_stimuli_original_animals_birds_1.png	Y	0	0	0	125.225885899999	125.425868999999
36994.25	100	209	5	1	47	29	5	7	0	1	0	stim006_stimuli_original_animals_fish_2.png	J	0	0	0	125.625878299994	125.825876700022
37094.25	100	210	5	1	47	30	12	14	0	0	0	stim013_stimuli_original_vehicles_planes_1.png	V	0	0	0	126.025876900007	126.225885899999
37194.25	100	211	5	1	47	31	14	7	0	1	1	stim015_stimuli_original_vehicles_planes_3.png	J	d	126.418437100016	1	126.425898200017	126.625896700018
37294.25	100	212	5	1	47	32	15	0	0	0	0	stim016_stimuli_original_vehicles_planes_4.png	A	0	0	0	126.825906500017	127.025903600006
37394.25	100	213	5	1	47	33	2	2	0	0	0	stim003_stimuli_original_animals_birds_3.png	C	0	0	0	127.225916199997	127.425903199997
37494.25	100	214	5	1	47	34	6	9	0	0	0	stim007_stimuli_original_animals_fish_3.png	L	0	0	0	127.625927800022	127.825926200021
37594.25	100	215	5	1	47	35	1	8	0	0	0	stim002_stimuli_original_animals_birds_2.png	K	0	0	0	128.025951799995	128.225932800007
39227.75	100	216	6	0	9	0	10	1	0	0	0	stim011_stimuli_original_vehicles_boats_3.png	B	0	0	0	134.559450600005	134.75944590001
39327.75	100	217	6	0	9	1	2	11	0	0	0	stim003_stimuli_original_animals_birds_3.png	R	0	0	0	134.959457000019	135.159455300018
39427.75	100	218	6	0	9	2	13	5	0	0	0	stim014_stimuli_original_vehicles_planes_2.png	F	0	0	0	135.359466800001	135.559467300016
39527.75	100	219	6	0	9	3	0	7	0	0	0	stim001_stimuli_original_animals_birds_1.png	J	0	0	0	135.759475600003	135.959476500022
39627.75	100	220	6	0	9	4	8	8	0	0	0	stim009_stimuli_original_vehicles_boats_1.png	K	0	0	0	136.159440899995	136.35948720001
39727.75	100	221	6	0	9	5	3	2	0	0	0	stim004_stimuli_original_animals_birds_4.png	C	0	0	0	136.559511400003	136.759499300009
39827.75	100	222	6	0	9	6	7	4	0	0	0	stim008_stimuli_original_animals_fish_4.png	E	0	0	0	136.959507899999	137.159506099997
39927.75	100	223	6	0	9	7	9	15	0	0	0	stim010_stimuli_original_vehicles_boats_2.png	Y	0	0	0	137.359517800011	137.559516100009
40027.75	100	224	6	0	9	8	4	13	1	0	0	stim005_stimuli_original_animals_fish_1.png	U	0	0	0	137.759531400021	137.959523500002
40127.75	100	225	6	0	9	9	6	10	0	0	0	stim007_stimuli_original_animals_fish_3.png	Q	0	0	0	138.159535200015	138.359534999996
40227.75	100	226	6	0	9	10	4	0	1	0	1	stim005_stimuli_original_animals_fish_1.png	A	0	0	0	138.559544999996	138.759550300019
40327.75	100	227	6	0	9	11	12	3	0	0	0	stim013_stimuli_original_vehicles_planes_1.png	D	0	0	0	138.959554400004	139.159556099999
40427.75	100	228	6	0	9	12	11	15	0	1	0	stim012_stimuli_original_vehicles_boats_4.png	Y	0	0	0	139.35956740001	139.55956340002
40527.75	100	229	6	0	9	13	14	9	0	0	0	stim015_stimuli_original_vehicles_planes_3.png	L	0	0	0	139.759575300006	139.959571300016
40627.75	100	230	6	0	9	14	15	15	0	1	0	stim016_stimuli_original_vehicles_planes_4.png	Y	0	0	0	140.159582499997	140.359583100013
40727.75	100	231	6	0	9	15	1	6	0	0	0	stim002_stimuli_original_animals_birds_2.png	G	0	0	0	140.559591700003	140.759591200011
40827.75	100	232	6	0	9	16	5	12	0	0	0	stim006_stimuli_original_animals_fish_2.png	T	0	0	0	140.959603800002	141.159601000021
40927.75	100	233	6	0	9	17	4	14	0	0	0	stim005_stimuli_original_animals_fish_1.png	V	0	0	0	141.359620700008	141.559611200006
41027.75	100	234	6	0	9	18	14	4	0	0	0	stim015_stimuli_original_vehicles_planes_3.png	E	0	0	0	141.759625600011	141.959606899996
41127.75	100	235	6	0	9	19	12	5	0	0	0	stim013_stimuli_original_vehicles_planes_1.png	F	0	0	0	142.159630200011	142.359630399995
41227.75	100	236	6	0	9	20	6	1	0	0	0	stim007_stimuli_original_animals_fish_3.png	B	0	0	0	142.559640000021	142.759638899995
41327.75	100	237	6	0	9	21	15	15	1	0	0	stim016_stimuli_original_vehicles_planes_4.png	Y	0	0	0	142.959650600009	143.159651900001
41427.75	100	238	6	0	9	22	9	14	0	0	0	stim010_stimuli_original_vehicles_boats_2.png	V	0	0	0	143.3596617	143.559641800006
41527.75	100	239	6	0	9	23	15	11	1	0	1	stim016_stimuli_original_vehicles_planes_4.png	R	0	0	0	143.759668800019	143.959675200022
41627.75	100	240	6	0	9	24	3	12	0	0	0	stim004_stimuli_original_animals_birds_4.png	T	0	0	0	144.159680400015	144.35967960002
41727.75	100	241	6	0	9	25	0	4	0	1	0	stim001_stimuli_original_animals_birds_1.png	E	0	0	0	144.559687500005	144.759689700004
41827.75	100	242	6	0	9	26	10	6	0	0	0	stim011_stimuli_original_vehicles_boats_3.png	G	0	0	0	144.959698499995	145.159697499999
41927.75	100	243	6	0	9	27	13	4	0	1	0	stim014_stimuli_original_vehicles_planes_2.png	E	0	0	0	145.359709200013	145.559710600006
42027.75	100	244	6	0	9	28	15	9	0	0	0	stim016_stimuli_original_vehicles_planes_4.png	L	0	0	0	145.759718700021	145.959715800011
42127.75	100	245	6	0	9	29	4	7	0	0	0	stim005_stimuli_original_animals_fish_1.png	J	0	0	0	146.159733400011	146.35972540002
42227.75	100	246	6	0	9	30	2	3	0	0	0	stim003_stimuli_original_animals_birds_3.png	D	0	0	0	146.559742000012	146.759738000022
42327.75	100	247	6	0	9	31	8	8	0	0	0	stim009_stimuli_original_vehicles_boats_1.png	K	0	0	0	146.959746400011	147.15974090001
42427.75	100	248	6	0	9	32	7	0	0	0	0	stim008_stimuli_original_animals_fish_4.png	A	0	0	0	147.359755900019	147.5597557
42527.75	100	249	6	0	9	33	5	13	0	0	0	stim006_stimuli_original_animals_fish_2.png	U	0	0	0	147.759764500021	147.959767199995
42627.75	100	250	6	0	9	34	11	2	0	0	0	stim012_stimuli_original_vehicles_boats_4.png	C	0	0	0	148.159764000011	148.359755700018
42727.75	100	251	6	0	9	35	1	10	0	0	0	stim002_stimuli_original_animals_birds_2.png	Q	0	0	0	148.559766999999	148.759796600003
43540.25	100	252	7	1	43	0	13	4	0	0	0	stim014_stimuli_original_vehicles_planes_2.png	E	0	0	0	151.809848900011	152.009844900022
43640.25	100	253	7	1	43	1	14	2	0	0	0	stim015_stimuli_original_vehicles_planes_3.png	C	0	0	0	152.209854999994	152.409857799998
43740.25	100	254	7	1	43	2	11	7	0	0	0	stim012_stimuli_original_vehicles_boats_4.png	J	0	0	0	152.609864700004	152.809861899994
43840.25	100	255	7	1	43	3	5	10	0	0	0	stim006_stimuli_original_animals_fish_2.png	Q	0	0	0	153.009888400004	153.209872300009
43940.25	100	256	7	1	43	4	6	11	0	0	0	stim007_stimuli_original_animals_fish_3.png	R	0	0	0	153.409884799999	153.6098833
44040.25	100	257	7	1	43	5	9	9	0	1	0	stim010_stimuli_original_vehicles_boats_2.png	L	0	0	0	153.80989970002	154.009894100018
44140.25	100	258	7	1	43	6	5	8	1	0	0	stim006_stimuli_original_animals_fish_2.png	K	0	0	0	154.20990430002	154.409904200002
44240.25	100	259	7	1	43	7	2	9	0	1	1	stim003_stimuli_original_animals_birds_3.png	L	0	0	0	154.609913099994	154.809911999997
44340.25	100	260	7	1	43	8	5	3	1	0	0	stim006_stimuli_original_animals_fish_2.png	D	0	0	0	155.00992370001	155.20994890001
44440.25	100	261	7	1	43	9	7	12	0	0	0	stim008_stimuli_original_animals_fish_4.png	T	0	0	0	155.4099308	155.609929700004
44540.25	100	262	7	1	43	10	8	15	0	0	0	stim009_stimuli_original_vehicles_boats_1.png	Y	0	0	0	155.809973800002	156.009943500016
44640.25	100	263	7	1	43	11	15	9	0	0	0	stim016_stimuli_original_vehicles_planes_4.png	L	0	0	0	156.209953200014	156.409949399997
44740.25	100	264	7	1	43	12	1	0	0	0	0	stim002_stimuli_original_animals_birds_2.png	A	0	0	0	156.609962000017	156.809964300017
44840.25	100	265	7	1	43	13	10	1	0	0	0	stim011_stimuli_original_vehicles_boats_3.png	B	0	0	0	157.009973200009	157.209971000004
44940.25	100	266	7	1	43	14	12	6	0	0	0	stim013_stimuli_original_vehicles_planes_1.png	G	0	0	0	157.40998180001	157.609978599998
45040.25	100	267	7	1	43	15	4	13	0	0	0	stim005_stimuli_original_animals_fish_1.png	U	0	0	0	157.810029500019	158.009992300009
45140.25	100	268	7	1	43	16	0	5	0	0	0	stim001_stimuli_original_animals_birds_1.png	F	0	0	0	158.2099973	158.410014399997
45240.25	100	269	7	1	43	17	3	14	0	0	0	stim004_stimuli_original_animals_birds_4.png	V	0	0	0	158.610009399999	158.810010500019
45340.25	100	270	7	1	43	18	14	3	0	0	0	stim015_stimuli_original_vehicles_planes_3.png	D	0	0	0	159.010020000016	159.210018100013
45440.25	100	271	7	1	43	19	5	0	0	0	0	stim006_stimuli_original_animals_fish_2.png	A	0	0	0	159.410028800019	159.610028099996
45540.25	100	272	7	1	43	20	13	4	0	0	0	stim014_stimuli_original_vehicles_planes_2.png	E	0	0	0	159.810039500007	160.010037100001
45640.25	100	273	7	1	43	21	6	12	0	0	0	stim007_stimuli_original_animals_fish_3.png	T	0	0	0	160.210047	160.410060099995
45740.25	100	274	7	1	43	22	1	10	0	0	0	stim002_stimuli_original_animals_birds_2.png	Q	0	0	0	160.610057800019	160.810058600007
45840.25	100	275	7	1	43	23	0	1	0	0	0	stim001_stimuli_original_animals_birds_1.png	B	0	0	0	161.010076700011	161.2100661
45940.25	100	276	7	1	43	24	9	15	0	0	0	stim010_stimuli_original_vehicles_boats_2.png	Y	0	0	0	161.410076600005	161.610075200006
46040.25	100	277	7	1	43	25	15	8	0	0	0	stim016_stimuli_original_vehicles_planes_4.png	K	0	0	0	161.810089200007	162.010085899994
46140.25	100	278	7	1	43	26	12	7	0	0	0	stim013_stimuli_original_vehicles_planes_1.png	J	0	0	0	162.210118200019	162.410096800013
46240.25	100	279	7	1	43	27	3	5	0	1	0	stim004_stimuli_original_animals_birds_4.png	F	0	0	0	162.610124400002	162.810106400022
46340.25	100	280	7	1	43	28	9	2	1	0	0	stim010_stimuli_original_vehicles_boats_2.png	C	0	0	0	163.010123300017	163.21011450002
46440.25	100	281	7	1	43	29	8	5	0	1	1	stim009_stimuli_original_vehicles_boats_1.png	F	0	0	0	163.410125099996	163.610127599997
46540.25	100	282	7	1	43	30	9	9	1	0	0	stim010_stimuli_original_vehicles_boats_2.png	L	0	0	0	163.810134200001	164.010134200013
46640.25	100	283	7	1	43	31	11	6	0	0	0	stim012_stimuli_original_vehicles_boats_4.png	G	0	0	0	164.210146700003	164.410144499998
46740.25	100	284	7	1	43	32	10	5	0	0	0	stim011_stimuli_original_vehicles_boats_3.png	F	0	0	0	164.610155800008	164.810155000014
46840.25	100	285	7	1	43	33	7	11	0	0	0	stim008_stimuli_original_animals_fish_4.png	R	d	165.201953100011	1	165.010164900013	165.210192600003
46940.25	100	286	7	1	43	34	2	14	0	0	0	stim003_stimuli_original_animals_birds_3.png	V	0	0	0	165.410174500023	165.610172000015
47040.25	100	287	7	1	43	35	4	13	0	0	0	stim005_stimuli_original_animals_fish_1.png	U	0	0	0	165.810211400007	166.0101823
47819.5	100	288	8	0	4	0	6	15	0	0	0	stim007_stimuli_original_animals_fish_3.png	Y	0	0	0	168.926900599996	169.126941099996
47919.5	100	289	8	0	4	1	8	7	0	0	0	stim009_stimuli_original_vehicles_boats_1.png	J	0	0	0	169.326916699996	169.526948500017
48019.5	100	290	8	0	4	2	9	2	0	0	0	stim010_stimuli_original_vehicles_boats_2.png	C	0	0	0	169.726978799998	169.926959600009
48119.5	100	291	8	0	4	3	12	4	0	0	0	stim013_stimuli_original_vehicles_planes_1.png	E	0	0	0	170.126972400001	170.326955600001
48219.5	100	292	8	0	4	4	13	5	0	0	0	stim014_stimuli_original_vehicles_planes_2.png	F	0	0	0	170.526981300005	170.726978399995
48319.5	100	293	8	0	4	5	0	13	1	0	0	stim001_stimuli_original_animals_birds_1.png	U	0	0	0	170.926990700013	171.126992400008
48419.5	100	294	8	0	4	6	11	8	0	1	0	stim012_stimuli_original_vehicles_boats_4.png	K	0	0	0	171.326997900003	171.526999199996
48519.5	100	295	8	0	4	7	0	11	1	0	1	stim001_stimuli_original_animals_birds_1.png	R	0	0	0	171.727008400019	171.927011000022
48619.5	100	296	8	0	4	8	3	8	0	1	0	stim004_stimuli_original_animals_birds_4.png	K	0	0	0	172.127024400019	172.327007900021
48719.5	100	297	8	0	4	9	10	9	0	0	0	stim011_stimuli_original_vehicles_boats_3.png	L	0	0	0	172.527030500001	172.727030300011
48819.5	100	298	8	0	4	10	14	12	0	0	0	stim015_stimuli_original_vehicles_planes_3.png	T	0	0	0	172.9270425	173.12703980002
48919.5	100	299	8	0	4	11	2	1	0	0	0	stim003_stimuli_original_animals_birds_3.png	B	0	0	0	173.327053500019	173.52705070001
49019.5	100	300	8	0	4	12	0	8	0	0	0	stim001_stimuli_original_animals_birds_1.png	K	0	0	0	173.727061800018	173.927064400021
49119.5	100	301	8	0	4	13	1	6	0	0	0	stim002_stimuli_original_animals_birds_2.png	G	0	0	0	174.127071900002	174.327072800021
49219.5	100	302	8	0	4	14	15	3	0	0	0	stim016_stimuli_original_vehicles_planes_4.png	D	0	0	0	174.52710180002	174.727067600004
49319.5	100	303	8	0	4	15	7	14	0	0	0	stim008_stimuli_original_animals_fish_4.png	V	0	0	0	174.927095799998	175.127080400009
49419.5	100	304	8	0	4	16	4	10	0	0	0	stim005_stimuli_original_animals_fish_1.png	Q	0	0	0	175.327103400021	175.527102499997
49519.5	100	305	8	0	4	17	5	0	0	0	0	stim006_stimuli_original_animals_fish_2.png	A	0	0	0	175.727112399996	175.927107800002
49619.5	100	306	8	0	4	18	0	5	0	0	0	stim001_stimuli_original_animals_birds_1.png	F	0	0	0	176.127119900018	176.327118300018
49719.5	100	307	8	0	4	19	10	4	0	0	0	stim011_stimuli_original_vehicles_boats_3.png	E	0	0	0	176.527129199996	176.727124500001
49819.5	100	308	8	0	4	20	14	7	0	0	0	stim015_stimuli_original_vehicles_planes_3.png	J	0	0	0	176.92714330001	177.127160100004
49919.5	100	309	8	0	4	21	3	15	0	0	0	stim004_stimuli_original_animals_birds_4.png	Y	0	0	0	177.327148600016	177.527149200003
50019.5	100	310	8	0	4	22	6	1	0	0	0	stim007_stimuli_original_animals_fish_3.png	B	0	0	0	177.727165999997	177.927158800012
50119.5	100	311	8	0	4	23	8	0	0	0	0	stim009_stimuli_original_vehicles_boats_1.png	A	0	0	0	178.127168200008	178.3271695
50219.5	100	312	8	0	4	24	1	2	0	0	0	stim002_stimuli_original_animals_birds_2.png	C	0	0	0	178.527163100021	178.727178600006
50319.5	100	313	8	0	4	25	12	14	0	0	0	stim013_stimuli_original_vehicles_planes_1.png	V	0	0	0	178.927187699999	179.127186700003
50419.5	100	314	8	0	4	26	9	10	0	0	0	stim010_stimuli_original_vehicles_boats_2.png	Q	0	0	0	179.32716830002	179.527196900017
50519.5	100	315	8	0	4	27	8	3	1	0	0	stim009_stimuli_original_vehicles_boats_1.png	D	0	0	0	179.727188799996	179.927206399996
50619.5	100	316	8	0	4	28	11	0	0	1	0	stim012_stimuli_original_vehicles_boats_4.png	A	0	0	0	180.127217400004	180.327217800019
50719.5	100	317	8	0	4	29	8	11	1	0	1	stim009_stimuli_original_vehicles_boats_1.png	R	0	0	0	180.527231400018	180.727224600007
50819.5	100	318	8	0	4	30	13	0	0	1	0	stim014_stimuli_original_vehicles_planes_2.png	A	0	0	0	180.927236400021	181.127234900021
50919.5	100	319	8	0	4	31	5	13	0	0	0	stim006_stimuli_original_animals_fish_2.png	U	0	0	0	181.327249199996	181.527244800003
51019.5	100	320	8	0	4	32	4	12	0	0	0	stim005_stimuli_original_animals_fish_1.png	T	0	0	0	181.72725560001	181.92725540002
51119.5	100	321	8	0	4	33	2	9	0	0	0	stim003_stimuli_original_animals_birds_3.png	L	0	0	0	182.127266099997	182.327285300009
51219.5	100	322	8	0	4	34	7	8	0	0	0	stim008_stimuli_original_animals_fish_4.png	K	0	0	0	182.527274499997	182.72727480001
51319.5	100	323	8	0	4	35	15	6	0	0	0	stim016_stimuli_original_vehicles_planes_4.png	G	0	0	0	182.927284300007	183.127285099996
51953	100	324	9	1	32	0	2	3	0	0	0	stim003_stimuli_original_animals_birds_3.png	D	0	0	0	185.460662700003	185.660658900015
52053	100	325	9	1	32	1	1	9	0	0	0	stim002_stimuli_original_animals_birds_2.png	L	0	0	0	185.860670399998	186.060658000002
52153	100	326	9	1	32	2	9	0	0	0	0	stim010_stimuli_original_vehicles_boats_2.png	A	0	0	0	186.260683300003	186.460668000014
52253	100	327	9	1	32	3	6	5	0	0	0	stim007_stimuli_original_animals_fish_3.png	F	0	0	0	186.660679299996	186.860682400002
52353	100	328	9	1	32	4	10	15	1	0	0	stim011_stimuli_original_vehicles_boats_3.png	Y	0	0	0	187.060688199999	187.260688900016
52453	100	329	9	1	32	5	11	7	0	0	0	stim012_stimuli_original_vehicles_boats_4.png	J	0	0	0	187.460697100003	187.660695300001
52553	100	330	9	1	32	6	10	12	1	0	0	stim011_stimuli_original_vehicles_boats_3.png	T	0	0	0	187.860708499997	188.060709400015
52653	100	331	9	1	32	7	0	13	0	0	0	stim001_stimuli_original_animals_birds_1.png	U	0	0	0	188.26071620002	188.460715099995
52753	100	332	9	1	32	8	8	10	0	0	0	stim009_stimuli_original_vehicles_boats_1.png	Q	0	0	0	188.66072840002	188.860738500021
52853	100	333	9	1	32	9	14	8	0	0	0	stim015_stimuli_original_vehicles_planes_3.png	K	0	0	0	189.060738100001	189.260733300005
52953	100	334	9	1	32	10	4	1	0	0	0	stim005_stimuli_original_animals_fish_1.png	B	0	0	0	189.4607502	189.66074620001
53053	100	335	9	1	32	11	7	6	0	0	0	stim008_stimuli_original_animals_fish_4.png	G	0	0	0	189.860754399997	190.060754500009
53153	100	336	9	1	32	12	12	3	0	1	0	stim013_stimuli_original_vehicles_planes_1.png	D	0	0	0	190.260767200001	190.460764899995
53253	100	337	9	1	32	13	3	2	0	0	0	stim004_stimuli_original_animals_birds_4.png	C	0	0	0	190.660774000018	190.860776000016
53353	100	338	9	1	32	14	15	3	0	1	1	stim016_stimuli_original_vehicles_planes_4.png	D	0	0	0	191.060813899996	191.260782600002
53453	100	339	9	1	32	15	13	11	0	0	0	stim014_stimuli_original_vehicles_planes_2.png	R	d	191.652580499998	1	191.460793800012	191.660810300004
53553	100	340	9	1	32	16	10	14	0	0	0	stim011_stimuli_original_vehicles_boats_3.png	V	0	0	0	191.860806600016	192.06081570001
53653	100	341	9	1	32	17	5	4	0	0	0	stim006_stimuli_original_animals_fish_2.png	E	0	0	0	192.260814300011	192.460811700003
53753	100	342	9	1	32	18	4	5	0	0	0	stim005_stimuli_original_animals_fish_1.png	F	0	0	0	192.660824999999	192.860822300019
53853	100	343	9	1	32	19	14	10	0	0	0	stim015_stimuli_original_vehicles_planes_3.png	Q	0	0	0	193.060833299998	193.260831599997
53953	100	344	9	1	32	20	11	13	0	0	0	stim012_stimuli_original_vehicles_boats_4.png	U	0	0	0	193.460843800014	193.660870299995
54053	100	345	9	1	32	21	3	15	1	0	0	stim004_stimuli_original_animals_birds_4.png	Y	0	0	0	193.860852800019	194.060855899996
54153	100	346	9	1	32	22	2	3	0	0	0	stim003_stimuli_original_animals_birds_3.png	D	0	0	0	194.26088430002	194.460863600019
54253	100	347	9	1	32	23	3	12	1	0	0	stim004_stimuli_original_animals_birds_4.png	T	0	0	0	194.660872200009	194.860871100012
54353	100	348	9	1	32	24	6	7	0	0	0	stim007_stimuli_original_animals_fish_3.png	J	0	0	0	195.060881000012	195.260879600013
54453	100	349	9	1	32	25	1	4	0	0	0	stim002_stimuli_original_animals_birds_2.png	E	0	0	0	195.460892400006	195.6608901
54553	100	350	9	1	32	26	8	14	0	0	0	stim009_stimuli_original_vehicles_boats_1.png	V	0	0	0	195.860901900014	196.060898900003
54653	100	351	9	1	32	27	10	8	0	0	0	stim011_stimuli_original_vehicles_boats_3.png	K	0	0	0	196.260925500013	196.460909000016
54753	100	352	9	1	32	28	13	0	0	0	0	stim014_stimuli_original_vehicles_planes_2.png	A	0	0	0	196.660924600001	196.860924200009
54853	100	353	9	1	32	29	12	10	0	1	0	stim013_stimuli_original_vehicles_planes_1.png	Q	0	0	0	197.060929400002	197.260930000019
54953	100	354	9	1	32	30	7	11	0	0	0	stim008_stimuli_original_animals_fish_4.png	R	0	0	0	197.460943000013	197.660938100016
55053	100	355	9	1	32	31	15	10	0	1	1	stim016_stimuli_original_vehicles_planes_4.png	Q	0	0	0	197.860949599999	198.060950100014
55153	100	356	9	1	32	32	5	6	0	0	0	stim006_stimuli_original_animals_fish_2.png	G	0	0	0	198.26095950001	198.460956299998
55253	100	357	9	1	32	33	0	9	0	0	0	stim001_stimuli_original_animals_birds_1.png	L	0	0	0	198.660969599994	198.860994700022
55353	100	358	9	1	32	34	9	1	0	0	0	stim010_stimuli_original_vehicles_boats_2.png	B	0	0	0	199.060980200011	199.260978200007
55453	100	359	9	1	32	35	3	2	0	0	0	stim004_stimuli_original_animals_birds_4.png	C	0	0	0	199.460992600012	199.660988999996
56169.75	100	360	10	0	38	0	11	6	0	0	0	stim012_stimuli_original_vehicles_boats_4.png	G	0	0	0	202.327787100017	202.527753800008
56269.75	100	361	10	0	38	1	15	9	0	0	0	stim016_stimuli_original_vehicles_planes_4.png	L	0	0	0	202.727745700016	202.927743200009
56369.75	100	362	10	0	38	2	2	10	0	0	0	stim003_stimuli_original_animals_birds_3.png	Q	0	0	0	203.127752900007	203.327753599995
56469.75	100	363	10	0	38	3	8	2	0	0	0	stim009_stimuli_original_vehicles_boats_1.png	C	0	0	0	203.527762900019	203.72776140002
56569.75	100	364	10	0	38	4	10	1	0	0	0	stim011_stimuli_original_vehicles_boats_3.png	B	0	0	0	203.927774000011	204.127771300002
56669.75	100	365	10	0	38	5	9	4	0	0	0	stim010_stimuli_original_vehicles_boats_2.png	E	0	0	0	204.327781800006	204.527785800019
56769.75	100	366	10	0	38	6	4	7	0	0	0	stim005_stimuli_original_animals_fish_1.png	J	0	0	0	204.727794700011	204.927790600021
56869.75	100	367	10	0	38	7	12	11	0	0	0	stim013_stimuli_original_vehicles_planes_1.png	R	0	0	0	205.127803900017	205.327799399995
56969.75	100	368	10	0	38	8	1	14	0	0	0	stim002_stimuli_original_animals_birds_2.png	V	0	0	0	205.527811900014	205.727809200005
57069.75	100	369	10	0	38	9	0	3	0	0	0	stim001_stimuli_original_animals_birds_1.png	D	0	0	0	205.92782490002	206.127818600013
57169.75	100	370	10	0	38	10	9	10	1	1	0	stim010_stimuli_original_vehicles_boats_2.png	Q	0	0	0	206.327829700022	206.527841300005
57269.75	100	371	10	0	38	11	3	5	0	0	0	stim004_stimuli_original_animals_birds_4.png	F	0	0	0	206.727848300012	206.927834400005
57369.75	100	372	10	0	38	12	9	10	1	1	1	stim010_stimuli_original_vehicles_boats_2.png	Q	0	0	0	207.127877899999	207.327867900021
57469.75	100	373	10	0	38	13	13	13	0	0	0	stim014_stimuli_original_vehicles_planes_2.png	U	0	0	0	207.527872200008	207.727861799998
57569.75	100	374	10	0	38	14	14	12	0	0	0	stim015_stimuli_original_vehicles_planes_3.png	T	d	208.119662200013	1	207.927874700021	208.127871500008
57669.75	100	375	10	0	38	15	7	0	0	0	0	stim008_stimuli_original_animals_fish_4.png	A	0	0	0	208.327884700004	208.527882399998
57769.75	100	376	10	0	38	16	6	15	0	0	0	stim007_stimuli_original_animals_fish_3.png	Y	0	0	0	208.727889900008	208.927890599996
57869.75	100	377	10	0	38	17	5	8	0	0	0	stim006_stimuli_original_animals_fish_2.png	K	0	0	0	209.127900699998	209.327899900003
57969.75	100	378	10	0	38	18	8	5	0	0	0	stim009_stimuli_original_vehicles_boats_1.png	F	0	0	0	209.527911300014	209.727911499998
58069.75	100	379	10	0	38	19	15	6	0	0	0	stim016_stimuli_original_vehicles_planes_4.png	G	0	0	0	209.927918900008	210.127918200014
58169.75	100	380	10	0	38	20	0	7	0	0	0	stim001_stimuli_original_animals_birds_1.png	J	0	0	0	210.327929599996	210.527931000019
58269.75	100	381	10	0	38	21	12	14	0	0	0	stim013_stimuli_original_vehicles_planes_1.png	V	0	0	0	210.727944600018	210.927950300014
58369.75	100	382	10	0	38	22	13	13	0	0	0	stim014_stimuli_original_vehicles_planes_2.png	U	0	0	0	211.127962400002	211.327970400016
58469.75	100	383	10	0	38	23	10	9	1	1	0	stim011_stimuli_original_vehicles_boats_3.png	L	0	0	0	211.527992899995	211.727992200002
58569.75	100	384	10	0	38	24	5	3	0	0	0	stim006_stimuli_original_animals_fish_2.png	D	0	0	0	211.928010500007	212.127968200017
58669.75	100	385	10	0	38	25	10	9	1	1	1	stim011_stimuli_original_vehicles_boats_3.png	L	0	0	0	212.327977500012	212.527978099999
58769.75	100	386	10	0	38	26	3	0	0	0	0	stim004_stimuli_original_animals_birds_4.png	A	0	0	0	212.727986400016	212.927986299997
58869.75	100	387	10	0	38	27	14	1	0	0	0	stim015_stimuli_original_vehicles_planes_3.png	B	0	0	0	213.127999799995	213.32799640001
58969.75	100	388	10	0	38	28	11	12	0	0	0	stim012_stimuli_original_vehicles_boats_4.png	T	0	0	0	213.528008499998	213.728009200015
59069.75	100	389	10	0	38	29	7	4	0	0	0	stim008_stimuli_original_animals_fish_4.png	E	0	0	0	213.928016699996	214.128017500014
59169.75	100	390	10	0	38	30	4	9	0	0	0	stim005_stimuli_original_animals_fish_1.png	L	0	0	0	214.328027200012	214.528026200016
59269.75	100	391	10	0	38	31	1	10	0	0	0	stim002_stimuli_original_animals_birds_2.png	Q	0	0	0	214.728038700006	214.928035699995
59369.75	100	392	10	0	38	32	2	8	0	0	0	stim003_stimuli_original_animals_birds_3.png	K	0	0	0	215.128051700012	215.328035400016
59469.75	100	393	10	0	38	33	10	2	0	0	0	stim011_stimuli_original_vehicles_boats_3.png	C	0	0	0	215.528046499996	215.728043500014
59569.75	100	394	10	0	38	34	9	15	0	0	0	stim010_stimuli_original_vehicles_boats_2.png	Y	0	0	0	215.928055800003	216.128054300003
59669.75	100	395	10	0	38	35	6	11	0	0	0	stim007_stimuli_original_animals_fish_3.png	R	0	0	0	216.328068600007	216.52806880002
60736.5	100	396	11	1	5	0	5	15	0	0	0	stim006_stimuli_original_animals_fish_2.png	Y	0	0	0	220.594860300014	220.794856099994
60836.5	100	397	11	1	5	1	12	11	0	0	0	stim013_stimuli_original_vehicles_planes_1.png	R	0	0	0	220.99484900001	221.194867400016
60936.5	100	398	11	1	5	2	13	8	0	0	0	stim014_stimuli_original_vehicles_planes_2.png	K	0	0	0	221.394887500006	221.594886800012
61036.5	100	399	11	1	5	3	14	3	0	0	0	stim015_stimuli_original_vehicles_planes_3.png	D	0	0	0	221.794898000022	221.994893299998
61136.5	100	400	11	1	5	4	7	4	0	0	0	stim008_stimuli_original_animals_fish_4.png	E	0	0	0	222.194905100012	222.394904000015
61236.5	100	401	11	1	5	5	2	14	0	0	0	stim003_stimuli_original_animals_birds_3.png	V	0	0	0	222.594913700013	222.794913999998
61336.5	100	402	11	1	5	6	4	9	1	0	0	stim005_stimuli_original_animals_fish_1.png	L	0	0	0	222.994931699999	223.194896500005
61436.5	100	403	11	1	5	7	10	2	0	0	0	stim011_stimuli_original_vehicles_boats_3.png	C	0	0	0	223.394901799998	223.594925500016
61536.5	100	404	11	1	5	8	4	7	1	0	0	stim005_stimuli_original_animals_fish_1.png	J	0	0	0	223.794938100007	223.994943400001
61636.5	100	405	11	1	5	9	0	14	0	1	0	stim001_stimuli_original_animals_birds_1.png	V	0	0	0	224.194945900002	224.394943799998
61736.5	100	406	11	1	5	10	3	0	0	0	0	stim004_stimuli_original_animals_birds_4.png	A	0	0	0	224.594958100002	224.794955899997
61836.5	100	407	11	1	5	11	8	14	0	1	1	stim009_stimuli_original_vehicles_boats_1.png	V	0	0	0	224.994964600017	225.194966300012
61936.5	100	408	11	1	5	12	4	1	0	0	0	stim005_stimuli_original_animals_fish_1.png	B	0	0	0	225.394974199997	225.594972599996
62036.5	100	409	11	1	5	13	9	6	0	0	0	stim010_stimuli_original_vehicles_boats_2.png	G	0	0	0	225.794980400009	225.994983200013
62136.5	100	410	11	1	5	14	11	12	0	0	0	stim012_stimuli_original_vehicles_boats_4.png	T	0	0	0	226.194998399995	226.395007500018
62236.5	100	411	11	1	5	15	1	13	0	0	0	stim002_stimuli_original_animals_birds_2.png	U	0	0	0	226.595003299997	226.795009199996
62336.5	100	412	11	1	5	16	15	5	0	0	0	stim016_stimuli_original_vehicles_planes_4.png	F	0	0	0	226.995013100008	227.195011100004
62436.5	100	413	11	1	5	17	6	10	0	0	0	stim007_stimuli_original_animals_fish_3.png	Q	0	0	0	227.395026400016	227.595031500008
62536.5	100	414	11	1	5	18	10	6	0	0	0	stim011_stimuli_original_vehicles_boats_3.png	G	0	0	0	227.795040500001	227.99504150002
62636.5	100	415	11	1	5	19	5	15	0	0	0	stim006_stimuli_original_animals_fish_2.png	Y	0	0	0	228.19505140002	228.395034999994
62736.5	100	416	11	1	5	20	13	1	0	0	0	stim014_stimuli_original_vehicles_planes_2.png	B	0	0	0	228.595057900005	228.795062599995
62836.5	100	417	11	1	5	21	12	11	0	0	0	stim013_stimuli_original_vehicles_planes_1.png	R	0	0	0	228.995070800011	229.195089999994
62936.5	100	418	11	1	5	22	6	9	0	0	0	stim007_stimuli_original_animals_fish_3.png	L	0	0	0	229.395076700021	229.595079399995
63036.5	100	419	11	1	5	23	1	4	0	0	0	stim002_stimuli_original_animals_birds_2.png	E	0	0	0	229.795091000007	229.995088199998
63136.5	100	420	11	1	5	24	14	8	1	0	0	stim015_stimuli_original_vehicles_planes_3.png	K	0	0	0	230.195100900019	230.395105800009
63236.5	100	421	11	1	5	25	0	3	0	0	0	stim001_stimuli_original_animals_birds_1.png	D	0	0	0	230.595113200019	230.79510670001
63336.5	100	422	11	1	5	26	14	0	1	0	0	stim015_stimuli_original_vehicles_planes_3.png	A	0	0	0	230.995104000001	231.195119500015
63436.5	100	423	11	1	5	27	7	4	0	1	0	stim008_stimuli_original_animals_fish_4.png	E	0	0	0	231.3951275	231.595121100021
63536.5	100	424	11	1	5	28	2	10	0	0	0	stim003_stimuli_original_animals_birds_3.png	Q	0	0	0	231.795136500004	231.995140000014
63636.5	100	425	11	1	5	29	9	4	0	1	1	stim010_stimuli_original_vehicles_boats_2.png	E	0	0	0	232.195150700019	232.395146499999
63736.5	100	426	11	1	5	30	14	2	0	0	0	stim015_stimuli_original_vehicles_planes_3.png	C	0	0	0	232.595156399999	232.79515760002
63836.5	100	427	11	1	5	31	4	7	0	0	0	stim005_stimuli_original_animals_fish_1.png	J	0	0	0	232.995171300019	233.195157400012
63936.5	100	428	11	1	5	32	3	14	0	0	0	stim004_stimuli_original_animals_birds_4.png	V	0	0	0	233.395176699996	233.595201300021
64036.5	100	429	11	1	5	33	8	13	0	0	0	stim009_stimuli_original_vehicles_boats_1.png	U	0	0	0	233.795186500007	233.995190000016
64136.5	100	430	11	1	5	34	11	12	0	0	0	stim012_stimuli_original_vehicles_boats_4.png	T	0	0	0	234.195193599997	234.395195200021
64236.5	100	431	11	1	5	35	15	5	0	0	0	stim016_stimuli_original_vehicles_planes_4.png	F	0	0	0	234.595202600001	234.795199900022
64890.75	100	432	12	0	15	0	9	8	0	0	0	stim010_stimuli_original_vehicles_boats_2.png	K	0	0	0	237.211910800019	237.41190430001
64990.75	100	433	12	0	15	1	2	15	0	0	0	stim003_stimuli_original_animals_birds_3.png	Y	0	0	0	237.61192190001	237.811927800009
65090.75	100	434	12	0	15	2	4	6	0	0	0	stim005_stimuli_original_animals_fish_1.png	G	0	0	0	238.011924399994	238.211929300014
65190.75	100	435	12	0	15	3	10	7	0	0	0	stim011_stimuli_original_vehicles_boats_3.png	J	0	0	0	238.411932999996	238.611929700011
65290.75	100	436	12	0	15	4	15	1	1	0	0	stim016_stimuli_original_vehicles_planes_4.png	B	0	0	0	238.811942200002	239.011940800003
65390.75	100	437	12	0	15	5	3	0	0	0	0	stim004_stimuli_original_animals_birds_4.png	A	0	0	0	239.211952600017	239.411955500022
65490.75	100	438	12	0	15	6	15	13	1	0	1	stim016_stimuli_original_vehicles_planes_4.png	U	0	0	0	239.611959700007	239.811970600014
65590.75	100	439	12	0	15	7	11	8	0	1	0	stim012_stimuli_original_vehicles_boats_4.png	K	0	0	0	240.011970399995	240.211981700006
65690.75	100	440	12	0	15	8	14	9	0	0	0	stim015_stimuli_original_vehicles_planes_3.png	L	0	0	0	240.41198080001	240.611978900008
65790.75	100	441	12	0	15	9	7	8	0	1	0	stim008_stimuli_original_animals_fish_4.png	K	0	0	0	240.811992400006	241.01199140001
65890.75	100	442	12	0	15	10	15	3	0	0	0	stim016_stimuli_original_vehicles_planes_4.png	D	0	0	0	241.211999799998	241.411998600001
65990.75	100	443	12	0	15	11	12	2	0	0	0	stim013_stimuli_original_vehicles_planes_1.png	C	d	241.803801200003	1	241.612008600001	241.812009500019
66090.75	100	444	12	0	15	12	5	14	0	0	0	stim006_stimuli_original_animals_fish_2.png	V	0	0	0	242.012020499998	242.212021600018
66190.75	100	445	12	0	15	13	13	5	0	0	0	stim014_stimuli_original_vehicles_planes_2.png	F	0	0	0	242.412060200004	242.612027399999
66290.75	100	446	12	0	15	14	8	10	0	0	0	stim009_stimuli_original_vehicles_boats_1.png	Q	0	0	0	242.812038300006	243.012051800004
66390.75	100	447	12	0	15	15	0	4	0	0	0	stim001_stimuli_original_animals_birds_1.png	E	0	0	0	243.212052799994	243.412052700005
66490.75	100	448	12	0	15	16	6	12	0	0	0	stim007_stimuli_original_animals_fish_3.png	T	0	0	0	243.612056800019	243.812058800017
66590.75	100	449	12	0	15	17	1	11	0	0	0	stim002_stimuli_original_animals_birds_2.png	R	0	0	0	244.012068500015	244.212068000023
66690.75	100	450	12	0	15	18	11	1	0	0	0	stim012_stimuli_original_vehicles_boats_4.png	B	0	0	0	244.412079600006	244.61207470001
66790.75	100	451	12	0	15	19	12	6	0	0	0	stim013_stimuli_original_vehicles_planes_1.png	G	0	0	0	244.812087300001	245.012115499994
66890.75	100	452	12	0	15	20	4	0	0	0	0	stim005_stimuli_original_animals_fish_1.png	A	0	0	0	245.21209830002	245.412096900021
66990.75	100	453	12	0	15	21	10	8	0	0	0	stim011_stimuli_original_vehicles_boats_3.png	K	0	0	0	245.612129999994	245.8121063
67090.75	100	454	12	0	15	22	5	13	0	0	0	stim006_stimuli_original_animals_fish_2.png	U	0	0	0	246.012117400009	246.212117999996
67190.75	100	455	12	0	15	23	14	5	0	0	0	stim015_stimuli_original_vehicles_planes_3.png	F	0	0	0	246.41212730002	246.612125000014
67290.75	100	456	12	0	15	24	2	12	0	0	0	stim003_stimuli_original_animals_birds_3.png	T	0	0	0	246.812137500005	247.012135600002
67390.75	100	457	12	0	15	25	3	15	0	0	0	stim004_stimuli_original_animals_birds_4.png	Y	0	0	0	247.212145099998	247.412146799994
67490.75	100	458	12	0	15	26	8	7	1	0	0	stim009_stimuli_original_vehicles_boats_1.png	J	0	0	0	247.612166200008	247.812155100022
67590.75	100	459	12	0	15	27	9	14	0	0	0	stim010_stimuli_original_vehicles_boats_2.png	V	0	0	0	248.012167400011	248.212177900015
67690.75	100	460	12	0	15	28	8	11	1	0	1	stim009_stimuli_original_vehicles_boats_1.png	R	0	0	0	248.412174099998	248.612172699999
67790.75	100	461	12	0	15	29	13	15	0	1	0	stim014_stimuli_original_vehicles_planes_2.png	Y	d	248.815837800008	1	248.812187700009	249.012185900006
67890.75	100	462	12	0	15	30	0	3	0	0	0	stim001_stimuli_original_animals_birds_1.png	D	0	0	0	249.212195900007	249.4121935
67990.75	100	463	12	0	15	31	1	15	0	1	0	stim002_stimuli_original_animals_birds_2.png	Y	0	0	0	249.612202500022	249.812235699996
68090.75	100	464	12	0	15	32	7	10	0	0	0	stim008_stimuli_original_animals_fish_4.png	Q	0	0	0	250.012214600021	250.212216800021
68190.75	100	465	12	0	15	33	6	4	0	0	0	stim007_stimuli_original_animals_fish_3.png	E	0	0	0	250.412224600004	250.612219300005
68290.75	100	466	12	0	15	34	15	2	0	0	0	stim016_stimuli_original_vehicles_planes_4.png	C	0	0	0	250.812236800004	251.012233400019
68390.75	100	467	12	0	15	35	8	9	0	0	0	stim009_stimuli_original_vehicles_boats_1.png	L	0	0	0	251.212243200018	251.412241600017
69020	100	468	13	1	38	0	11	6	0	0	0	stim012_stimuli_original_vehicles_boats_4.png	G	0	0	0	253.728985299997	253.928971000016
69120	100	469	13	1	38	1	15	9	0	0	0	stim016_stimuli_original_vehicles_planes_4.png	L	0	0	0	254.128980600013	254.328979100013
69220	100	470	13	1	38	2	2	10	0	0	0	stim003_stimuli_original_animals_birds_3.png	Q	0	0	0	254.528988900012	254.728991100012
69320	100	471	13	1	38	3	8	2	0	0	0	stim009_stimuli_original_vehicles_boats_1.png	C	0	0	0	254.929000500008	255.128999400011
69420	100	472	13	1	38	4	10	1	0	0	0	stim011_stimuli_original_vehicles_boats_3.png	B	0	0	0	255.329011900001	255.529008300015
69520	100	473	13	1	38	5	9	4	0	0	0	stim010_stimuli_original_vehicles_boats_2.png	E	0	0	0	255.729019200022	255.929026800004
69620	100	474	13	1	38	6	4	7	0	0	0	stim005_stimuli_original_animals_fish_1.png	J	0	0	0	256.129030000011	256.329028600012
69720	100	475	13	1	38	7	12	11	0	0	0	stim013_stimuli_original_vehicles_planes_1.png	R	0	0	0	256.529041400005	256.729038999998
69820	100	476	13	1	38	8	1	14	0	0	0	stim002_stimuli_original_animals_birds_2.png	V	0	0	0	256.929052100022	257.129051900003
69920	100	477	13	1	38	9	0	3	0	0	0	stim001_stimuli_original_animals_birds_1.png	D	0	0	0	257.329059900017	257.529059599998
70020	100	478	13	1	38	10	9	10	1	1	0	stim010_stimuli_original_vehicles_boats_2.png	Q	0	0	0	257.729068800021	257.929069000005
70120	100	479	13	1	38	11	3	5	0	0	0	stim004_stimuli_original_animals_birds_4.png	F	0	0	0	258.129079700011	258.329080199997
70220	100	480	13	1	38	12	9	10	1	1	1	stim010_stimuli_original_vehicles_boats_2.png	Q	0	0	0	258.529087000003	258.729086300009
70320	100	481	13	1	38	13	13	13	0	0	0	stim014_stimuli_original_vehicles_planes_2.png	U	0	0	0	258.92910150002	259.12909610002
70420	100	482	13	1	38	14	14	12	0	0	0	stim015_stimuli_original_vehicles_planes_3.png	T	0	0	0	259.329105700017	259.529104999994
70520	100	483	13	1	38	15	7	0	0	0	0	stim008_stimuli_original_animals_fish_4.png	A	0	0	0	259.729116300005	259.929115300009
70620	100	484	13	1	38	16	6	15	0	0	0	stim007_stimuli_original_animals_fish_3.png	Y	0	0	0	260.129125500011	260.329125799995
70720	100	485	13	1	38	17	5	8	0	0	0	stim006_stimuli_original_animals_fish_2.png	K	0	0	0	260.529135999997	260.7291425
70820	100	486	13	1	38	18	8	5	0	0	0	stim009_stimuli_original_vehicles_boats_1.png	F	0	0	0	260.929146400013	261.129148100008
70920	100	487	13	1	38	19	15	6	0	0	0	stim016_stimuli_original_vehicles_planes_4.png	G	0	0	0	261.329156299995	261.529164100008
71020	100	488	13	1	38	20	0	7	0	0	0	stim001_stimuli_original_animals_birds_1.png	J	0	0	0	261.729164599994	261.929163000023
71120	100	489	13	1	38	21	12	14	0	0	0	stim013_stimuli_original_vehicles_planes_1.png	V	0	0	0	262.129179600015	262.329177200008
71220	100	490	13	1	38	22	13	13	0	0	0	stim014_stimuli_original_vehicles_planes_2.png	U	0	0	0	262.529187800013	262.729184800002
71320	100	491	13	1	38	23	10	9	1	1	0	stim011_stimuli_original_vehicles_boats_3.png	L	0	0	0	262.929194600001	263.129192799999
71420	100	492	13	1	38	24	5	3	0	0	0	stim006_stimuli_original_animals_fish_2.png	D	0	0	0	263.329204900016	263.529204100021
71520	100	493	13	1	38	25	10	9	1	1	1	stim011_stimuli_original_vehicles_boats_3.png	L	0	0	0	263.729219300003	263.929212100018
71620	100	494	13	1	38	26	3	0	0	0	0	stim004_stimuli_original_animals_birds_4.png	A	0	0	0	264.129222500022	264.329222900007
71720	100	495	13	1	38	27	14	1	0	0	0	stim015_stimuli_original_vehicles_planes_3.png	B	0	0	0	264.529234300018	264.72923300002
71820	100	496	13	1	38	28	11	12	0	0	0	stim012_stimuli_original_vehicles_boats_4.png	T	0	0	0	264.929243999999	265.129266200005
71920	100	497	13	1	38	29	7	4	0	0	0	stim008_stimuli_original_animals_fish_4.png	E	0	0	0	265.329253100004	265.529253200017
72020	100	498	13	1	38	30	4	9	0	0	0	stim005_stimuli_original_animals_fish_1.png	L	0	0	0	265.72926360002	265.929261700017
72120	100	499	13	1	38	31	1	10	0	0	0	stim002_stimuli_original_animals_birds_2.png	Q	0	0	0	266.129271600017	266.329273500014
72220	100	500	13	1	38	32	2	8	0	0	0	stim003_stimuli_original_animals_birds_3.png	K	0	0	0	266.52928420002	266.729281800013
72320	100	501	13	1	38	33	10	2	0	0	0	stim011_stimuli_original_vehicles_boats_3.png	C	0	0	0	266.929291400011	267.129290600016
72420.25	100	502	13	1	38	34	9	15	0	0	0	stim010_stimuli_original_vehicles_boats_2.png	Y	0	0	0	267.329303300008	267.529300900002
72520.25	100	503	13	1	38	35	6	11	0	0	0	stim007_stimuli_original_animals_fish_3.png	R	0	0	0	267.729312600015	267.929310600011
74232.75	100	504	14	0	37	0	6	0	0	0	0	stim007_stimuli_original_animals_fish_3.png	A	0	0	0	274.579479000007	274.779476600001
74332.75	100	505	14	0	37	1	2	10	0	0	0	stim003_stimuli_original_animals_birds_3.png	Q	0	0	0	274.979488500016	275.179492299998
74432.75	100	506	14	0	37	2	0	4	0	0	0	stim001_stimuli_original_animals_birds_1.png	E	0	0	0	275.379495400004	275.5794971
74532.75	100	507	14	0	37	3	5	5	0	0	0	stim006_stimuli_original_animals_fish_2.png	F	0	0	0	275.779506899999	275.979504799994
74632.75	100	508	14	0	37	4	8	3	0	0	0	stim009_stimuli_original_vehicles_boats_1.png	D	0	0	0	276.179522699997	276.379515200009
74732.75	100	509	14	0	37	5	4	7	0	0	0	stim005_stimuli_original_animals_fish_1.png	J	0	0	0	276.579554199998	276.77952880002
74832.75	100	510	14	0	37	6	10	11	1	0	0	stim011_stimuli_original_vehicles_boats_3.png	R	0	0	0	276.979534800019	277.179551300011
74932.75	100	511	14	0	37	7	7	13	0	0	0	stim008_stimuli_original_animals_fish_4.png	U	0	0	0	277.379547699995	277.5795469
75032.75	100	512	14	0	37	8	10	14	1	0	1	stim011_stimuli_original_vehicles_boats_3.png	V	0	0	0	277.77956710002	277.979556900013
75132.75	100	513	14	0	37	9	1	1	0	0	0	stim002_stimuli_original_animals_birds_2.png	B	0	0	0	278.179564599996	278.379564300005
75232.75	100	514	14	0	37	10	9	12	0	0	0	stim010_stimuli_original_vehicles_boats_2.png	T	0	0	0	278.57957490001	278.779573900014
75332.75	100	515	14	0	37	11	15	2	0	0	0	stim016_stimuli_original_vehicles_planes_4.png	C	0	0	0	278.979584900022	279.179610200023
75432.75	100	516	14	0	37	12	10	3	0	1	0	stim011_stimuli_original_vehicles_boats_3.png	D	0	0	0	279.379593999998	279.579594400013
75532.75	100	517	14	0	37	13	11	9	0	0	0	stim012_stimuli_original_vehicles_boats_4.png	L	0	0	0	279.779629900004	279.979602100007
75632.75	100	518	14	0	37	14	14	3	0	1	0	stim015_stimuli_original_vehicles_planes_3.png	D	0	0	0	280.179617000016	280.379611500015
75732.75	100	519	14	0	37	15	3	8	0	0	0	stim004_stimuli_original_animals_birds_4.png	K	0	0	0	280.57962210002	280.779620999994
75832.75	100	520	14	0	37	16	12	6	0	0	0	stim013_stimuli_original_vehicles_planes_1.png	G	0	0	0	280.979630899994	281.179631700012
75932.75	100	521	14	0	37	17	13	15	0	0	0	stim014_stimuli_original_vehicles_planes_2.png	Y	0	0	0	281.379643399996	281.579640600015
76032.75	100	522	14	0	37	18	15	13	0	0	0	stim016_stimuli_original_vehicles_planes_4.png	U	0	0	0	281.779669400014	281.97967510001
76132.75	100	523	14	0	37	19	6	12	0	0	0	stim007_stimuli_original_animals_fish_3.png	T	0	0	0	282.179663300019	282.37966560002
76232.75	100	524	14	0	37	20	8	3	0	0	0	stim009_stimuli_original_vehicles_boats_1.png	D	0	0	0	282.579686900019	282.779671099997
76332.75	100	525	14	0	37	21	3	14	1	0	0	stim004_stimuli_original_animals_birds_4.png	V	0	0	0	282.979682400008	283.179679699999
76432.75	100	526	14	0	37	22	9	11	0	0	0	stim010_stimuli_original_vehicles_boats_2.png	R	0	0	0	283.379699600016	283.579691799998
76532.75	100	527	14	0	37	23	3	10	1	0	1	stim004_stimuli_original_animals_birds_4.png	Q	0	0	0	283.77970330001	283.979702000011
76632.75	100	528	14	0	37	24	2	15	0	0	0	stim003_stimuli_original_animals_birds_3.png	Y	0	0	0	284.179712600017	284.379709800007
76732.75	100	529	14	0	37	25	12	9	0	0	0	stim013_stimuli_original_vehicles_planes_1.png	L	0	0	0	284.579719900008	284.779721400002
76832.75	100	530	14	0	37	26	1	1	0	0	0	stim002_stimuli_original_animals_birds_2.png	B	0	0	0	284.979730299994	285.179727300012
76932.75	100	531	14	0	37	27	14	10	0	1	0	stim015_stimuli_original_vehicles_planes_3.png	Q	0	0	0	285.379740100005	285.579738600005
77032.75	100	532	14	0	37	28	13	7	0	0	0	stim014_stimuli_original_vehicles_planes_2.png	J	0	0	0	285.779747599998	285.979751300009
77132.75	100	533	14	0	37	29	11	10	0	1	0	stim012_stimuli_original_vehicles_boats_4.png	Q	0	0	0	286.179758700018	286.379768200015
77232.75	100	534	14	0	37	30	7	4	0	0	0	stim008_stimuli_original_animals_fish_4.png	E	0	0	0	286.579767500021	286.779769500019
77332.75	100	535	14	0	37	31	3	8	0	0	0	stim004_stimuli_original_animals_birds_4.png	K	0	0	0	286.979778800014	287.179778599995
77432.75	100	536	14	0	37	32	5	5	0	0	0	stim006_stimuli_original_animals_fish_2.png	F	0	0	0	287.379815299995	287.579777700012
77532.75	100	537	14	0	37	33	4	0	0	0	0	stim005_stimuli_original_animals_fish_1.png	A	0	0	0	287.7797976	287.979800400004
77632.75	100	538	14	0	37	34	10	2	0	0	0	stim011_stimuli_original_vehicles_boats_3.png	C	0	0	0	288.179806900007	288.379811999999
77732.75	100	539	14	0	37	35	0	6	0	0	0	stim001_stimuli_original_animals_birds_1.png	G	0	0	0	288.579815600009	288.77981420001
78587	100	540	15	1	28	0	4	15	0	0	0	stim005_stimuli_original_animals_fish_1.png	Y	0	0	0	291.996591500007	292.196587000013
78687	100	541	15	1	28	1	5	0	0	0	0	stim006_stimuli_original_animals_fish_2.png	A	0	0	0	292.396601100016	292.596599100012
78787	100	542	15	1	28	2	1	5	0	0	0	stim002_stimuli_original_animals_birds_2.png	F	0	0	0	292.796610899997	292.996606700006
78887	100	543	15	1	28	3	6	9	0	0	0	stim007_stimuli_original_animals_fish_3.png	L	0	0	0	293.1966197	293.396615800011
78987	100	544	15	1	28	4	11	7	0	0	0	stim012_stimuli_original_vehicles_boats_4.png	J	0	0	0	293.596607300016	293.796630199999
79087	100	545	15	1	28	5	9	10	0	0	0	stim010_stimuli_original_vehicles_boats_2.png	Q	0	0	0	293.996592100011	294.196644000011
79187	100	546	15	1	28	6	10	3	0	0	0	stim011_stimuli_original_vehicles_boats_3.png	D	0	0	0	294.396647899994	294.596651200001
79287	100	547	15	1	28	7	7	5	0	1	0	stim008_stimuli_original_animals_fish_4.png	F	0	0	0	294.796658600011	294.996658999997
79387	100	548	15	1	28	8	11	12	1	0	0	stim012_stimuli_original_vehicles_boats_4.png	T	0	0	0	295.196675500018	295.396666200017
79487	100	549	15	1	28	9	2	5	0	1	1	stim003_stimuli_original_animals_birds_3.png	F	0	0	0	295.59669050001	295.796685100009
79587	100	550	15	1	28	10	11	6	1	0	0	stim012_stimuli_original_vehicles_boats_4.png	G	0	0	0	295.996695900016	296.196701900015
79687	100	551	15	1	28	11	13	8	0	0	0	stim014_stimuli_original_vehicles_planes_2.png	K	0	0	0	296.396703800012	296.596702700015
79787	100	552	15	1	28	12	14	14	0	0	0	stim015_stimuli_original_vehicles_planes_3.png	V	0	0	0	296.796702299995	296.996713100001
79887	100	553	15	1	28	13	8	13	0	0	0	stim009_stimuli_original_vehicles_boats_1.png	U	0	0	0	297.196724300011	297.39672270001
79987	100	554	15	1	28	14	12	4	0	0	0	stim013_stimuli_original_vehicles_planes_1.png	E	0	0	0	297.596733600018	297.796732500021
80087	100	555	15	1	28	15	0	11	0	0	0	stim001_stimuli_original_animals_birds_1.png	R	0	0	0	297.996748500009	298.196749299997
80187	100	556	15	1	28	16	3	1	0	0	0	stim004_stimuli_original_animals_birds_4.png	B	0	0	0	298.396755199996	298.596750199998
80287	100	557	15	1	28	17	15	2	0	0	0	stim016_stimuli_original_vehicles_planes_4.png	C	0	0	0	298.796768600005	298.996760300011
80387	100	558	15	1	28	18	2	15	0	0	0	stim003_stimuli_original_animals_birds_3.png	Y	0	0	0	299.196776600002	299.396770699997
80487	100	559	15	1	28	19	1	3	0	0	0	stim002_stimuli_original_animals_birds_2.png	D	0	0	0	299.596781700006	299.796765400009
80587	100	560	15	1	28	20	11	0	0	0	0	stim012_stimuli_original_vehicles_boats_4.png	A	0	0	0	299.996791700018	300.196776800003
80687	100	561	15	1	28	21	4	12	0	0	0	stim005_stimuli_original_animals_fish_1.png	T	0	0	0	300.396802500007	300.596799000021
80787	100	562	15	1	28	22	13	8	0	0	0	stim014_stimuli_original_vehicles_planes_2.png	K	0	0	0	300.796812300017	300.996809000004
80887	100	563	15	1	28	23	14	14	0	0	0	stim015_stimuli_original_vehicles_planes_3.png	V	0	0	0	301.196818199998	301.396819700021
80987	100	564	15	1	28	24	8	13	0	0	0	stim009_stimuli_original_vehicles_boats_1.png	U	0	0	0	301.596829899994	301.796828599996
81087	100	565	15	1	28	25	6	11	0	1	0	stim007_stimuli_original_animals_fish_3.png	R	0	0	0	301.996843100002	302.19684020002
81187	100	566	15	1	28	26	5	2	1	0	0	stim006_stimuli_original_animals_fish_2.png	C	0	0	0	302.396852300008	302.596855200012
81287	100	567	15	1	28	27	12	11	0	1	1	stim013_stimuli_original_vehicles_planes_1.png	R	0	0	0	302.79686100001	302.996858500002
81387	100	568	15	1	28	28	5	7	1	0	0	stim006_stimuli_original_animals_fish_2.png	J	0	0	0	303.196868700004	303.396867500007
81487	100	569	15	1	28	29	3	10	0	0	0	stim004_stimuli_original_animals_birds_4.png	Q	0	0	0	303.5968804	303.7968826
81587	100	570	15	1	28	30	10	9	0	0	0	stim011_stimuli_original_vehicles_boats_3.png	L	0	0	0	303.996887000016	304.196872
81687	100	571	15	1	28	31	7	11	0	0	0	stim008_stimuli_original_animals_fish_4.png	R	0	0	0	304.396899000014	304.596897900017
81787	100	572	15	1	28	32	9	6	0	0	0	stim010_stimuli_original_vehicles_boats_2.png	G	0	0	0	304.796905700001	304.996908100002
81887	100	573	15	1	28	33	5	1	0	0	0	stim006_stimuli_original_animals_fish_2.png	B	d	305.388714200002	0	305.196918800008	305.396919000021
81987	100	574	15	1	28	34	0	5	0	0	0	stim001_stimuli_original_animals_birds_1.png	F	0	0	0	305.596931100008	305.796928099997
82087	100	575	15	1	28	35	15	4	0	0	0	stim016_stimuli_original_vehicles_planes_4.png	E	0	0	0	305.996935100004	306.196936499997
82895.5	100	576	16	0	0	0	3	7	0	0	0	stim004_stimuli_original_animals_birds_4.png	J	0	0	0	309.230333100015	309.4303296
82995.5	100	577	16	0	0	1	15	11	0	0	0	stim016_stimuli_original_vehicles_planes_4.png	R	0	0	0	309.630341300013	309.830342800007
83095.5	100	578	16	0	0	2	14	8	0	0	0	stim015_stimuli_original_vehicles_planes_3.png	K	0	0	0	310.030354300019	310.230345599994
83195.5	100	579	16	0	0	3	13	0	0	0	0	stim014_stimuli_original_vehicles_planes_2.png	A	0	0	0	310.4303602	310.630357000016
83295.5	100	580	16	0	0	4	12	14	0	0	0	stim013_stimuli_original_vehicles_planes_1.png	V	0	0	0	310.830367300019	311.030366499996
83395.5	100	581	16	0	0	5	1	2	0	0	0	stim002_stimuli_original_animals_birds_2.png	C	0	0	0	311.230377900007	311.430379099998
83495.5	100	582	16	0	0	6	4	9	0	0	0	stim005_stimuli_original_animals_fish_1.png	L	0	0	0	311.630388300022	311.830378000013
83595.5	100	583	16	0	0	7	14	5	1	0	0	stim015_stimuli_original_vehicles_planes_3.png	F	0	0	0	312.030391200009	312.2303847
83695.5	100	584	16	0	0	8	2	14	0	1	0	stim003_stimuli_original_animals_birds_3.png	V	0	0	0	312.430399300007	312.630393900006
83795.5	100	585	16	0	0	9	14	3	1	0	1	stim015_stimuli_original_vehicles_planes_3.png	D	0	0	0	312.830403900007	313.030406200007
83895.5	100	586	16	0	0	10	6	14	0	1	0	stim007_stimuli_original_animals_fish_3.png	V	0	0	0	313.230415400001	313.430412800022
83995.5	100	587	16	0	0	11	10	12	0	0	0	stim011_stimuli_original_vehicles_boats_3.png	T	0	0	0	313.630424500006	313.830425000022
84095.5	100	588	16	0	0	12	5	1	0	0	0	stim006_stimuli_original_animals_fish_2.png	B	0	0	0	314.030434400018	314.230435100006
84195.5	100	589	16	0	0	13	0	15	0	0	0	stim001_stimuli_original_animals_birds_1.png	Y	0	0	0	314.430443799996	314.630443600006
84295.5	100	590	16	0	0	14	11	4	0	0	0	stim012_stimuli_original_vehicles_boats_4.png	E	0	0	0	314.830451899994	315.030453600019
84395.5	100	591	16	0	0	15	7	10	0	0	0	stim008_stimuli_original_animals_fish_4.png	Q	0	0	0	315.230462900014	315.43046090001
84495.5	100	592	16	0	0	16	9	13	0	0	0	stim010_stimuli_original_vehicles_boats_2.png	U	0	0	0	315.630474900012	315.830473000009
84595.5	100	593	16	0	0	17	8	6	0	0	0	stim009_stimuli_original_vehicles_boats_1.png	G	0	0	0	316.030483300012	316.23048660002
84695.5	100	594	16	0	0	18	6	8	0	0	0	stim007_stimuli_original_animals_fish_3.png	K	0	0	0	316.430491100007	316.630491500022
84795.5	100	595	16	0	0	19	13	9	0	0	0	stim014_stimuli_original_vehicles_planes_2.png	L	0	0	0	316.830502199999	317.0305009
84895.5	100	596	16	0	0	20	10	7	0	0	0	stim011_stimuli_original_vehicles_boats_3.png	J	0	0	0	317.230512000009	317.430509700003
84995.5	100	597	16	0	0	21	4	11	0	0	0	stim005_stimuli_original_animals_fish_1.png	R	0	0	0	317.630524500011	317.830521800002
85095.5	100	598	16	0	0	22	15	0	0	0	0	stim016_stimuli_original_vehicles_planes_4.png	A	0	0	0	318.030530100019	318.230529499997
85195.5	100	599	16	0	0	23	1	5	0	0	0	stim002_stimuli_original_animals_birds_2.png	F	0	0	0	318.430540200003	318.630540100014
85295.5	100	600	16	0	0	24	12	10	0	0	0	stim013_stimuli_original_vehicles_planes_1.png	Q	0	0	0	318.830553100008	319.030548600014
85395.5	100	601	16	0	0	25	14	6	1	0	0	stim015_stimuli_original_vehicles_planes_3.png	G	0	0	0	319.230562100012	319.430567300005
85495.5	100	602	16	0	0	26	3	14	0	1	0	stim004_stimuli_original_animals_birds_4.png	V	0	0	0	319.630568499997	319.830568200006
85595.5	100	603	16	0	0	27	14	2	1	0	1	stim015_stimuli_original_vehicles_planes_3.png	C	0	0	0	320.03057990002	320.230582500022
85695.5	100	604	16	0	0	28	5	14	0	1	0	stim006_stimuli_original_animals_fish_2.png	V	0	0	0	320.43059080001	320.630592300004
85795.5	100	605	16	0	0	29	9	4	0	0	0	stim010_stimuli_original_vehicles_boats_2.png	E	0	0	0	320.830600000016	321.030597900011
85895.5	100	606	16	0	0	30	2	1	0	0	0	stim003_stimuli_original_animals_birds_3.png	B	0	0	0	321.230608800019	321.430607600021
85995.5	100	607	16	0	0	31	14	12	0	0	0	stim015_stimuli_original_vehicles_planes_3.png	T	0	0	0	321.630619000003	321.830617500003
86095.5	100	608	16	0	0	32	0	13	0	0	0	stim001_stimuli_original_animals_birds_1.png	U	d	322.2224308	1	322.030631500005	322.230627900019
86195.5	100	609	16	0	0	33	8	14	0	0	0	stim009_stimuli_original_vehicles_boats_1.png	V	0	0	0	322.430637000012	322.630636600021
86295.5	100	610	16	0	0	34	11	15	0	0	0	stim012_stimuli_original_vehicles_boats_4.png	Y	0	0	0	322.830648200004	323.030645999999
86395.5	100	611	16	0	0	35	7	3	0	0	0	stim008_stimuli_original_animals_fish_4.png	D	0	0	0	323.230657600012	323.430655900011
87041.25	100	612	17	1	9	0	10	1	0	0	0	stim011_stimuli_original_vehicles_boats_3.png	B	0	0	0	325.814069900021	326.014076399995
87141.25	100	613	17	1	9	1	2	11	0	0	0	stim003_stimuli_original_animals_birds_3.png	R	0	0	0	326.214060600003	326.414085099997
87241.25	100	614	17	1	9	2	13	5	0	0	0	stim014_stimuli_original_vehicles_planes_2.png	F	0	0	0	326.614097400015	326.814093499997
87341.25	100	615	17	1	9	3	0	7	0	0	0	stim001_stimuli_original_animals_birds_1.png	J	0	0	0	327.014110300021	327.214107000007
87441.25	100	616	17	1	9	4	8	8	0	0	0	stim009_stimuli_original_vehicles_boats_1.png	K	0	0	0	327.414136200008	327.614118199999
87541.25	100	617	17	1	9	5	3	2	0	0	0	stim004_stimuli_original_animals_birds_4.png	C	0	0	0	327.814125000004	328.014123100002
87641.25	100	618	17	1	9	6	7	4	0	0	0	stim008_stimuli_original_animals_fish_4.png	E	0	0	0	328.214138800016	328.414131500002
87741.25	100	619	17	1	9	7	9	15	0	0	0	stim010_stimuli_original_vehicles_boats_2.png	Y	0	0	0	328.614143400016	328.814154799999
87841.25	100	620	17	1	9	8	4	13	1	0	0	stim005_stimuli_original_animals_fish_1.png	U	0	0	0	329.014166100009	329.214153100009
87941.25	100	621	17	1	9	9	6	10	0	0	0	stim007_stimuli_original_animals_fish_3.png	Q	0	0	0	329.414168100018	329.614162200014
88041.25	100	622	17	1	9	10	4	0	1	0	0	stim005_stimuli_original_animals_fish_1.png	A	0	0	0	329.814174400002	330.014175400021
88141.25	100	623	17	1	9	11	12	3	0	0	0	stim013_stimuli_original_vehicles_planes_1.png	D	0	0	0	330.214180800016	330.414183200017
88241.25	100	624	17	1	9	12	11	15	0	1	0	stim012_stimuli_original_vehicles_boats_4.png	Y	0	0	0	330.614191400004	330.814191200014
88341.25	100	625	17	1	9	13	14	9	0	0	0	stim015_stimuli_original_vehicles_planes_3.png	L	0	0	0	331.014208400011	331.214200100017
88441.25	100	626	17	1	9	14	15	15	0	1	1	stim016_stimuli_original_vehicles_planes_4.png	Y	0	0	0	331.4142116	331.614215300011
88541.25	100	627	17	1	9	15	1	6	0	0	0	stim002_stimuli_original_animals_birds_2.png	G	0	0	0	331.814225800015	332.014225499996
88641.25	100	628	17	1	9	16	5	12	0	0	0	stim006_stimuli_original_animals_fish_2.png	T	d	332.206838000013	1	332.214231599995	332.414230599999
88741.25	100	629	17	1	9	17	4	14	0	0	0	stim005_stimuli_original_animals_fish_1.png	V	0	0	0	332.614240900002	332.814238299994
88841.25	100	630	17	1	9	18	14	4	0	0	0	stim015_stimuli_original_vehicles_planes_3.png	E	0	0	0	333.014249600004	333.214252200007
88941.25	100	631	17	1	9	19	12	5	0	0	0	stim013_stimuli_original_vehicles_planes_1.png	F	0	0	0	333.414257199998	333.614237400005
89041.25	100	632	17	1	9	20	6	1	0	0	0	stim007_stimuli_original_animals_fish_3.png	B	0	0	0	333.8142696	334.014272
89141.25	100	633	17	1	9	21	15	15	1	0	0	stim016_stimuli_original_vehicles_planes_4.png	Y	0	0	0	334.214281199995	334.414276900003
89241.25	100	634	17	1	9	22	9	14	0	0	0	stim010_stimuli_original_vehicles_boats_2.png	V	0	0	0	334.614292400016	334.814290000009
89341.5	100	635	17	1	9	23	15	11	1	0	0	stim016_stimuli_original_vehicles_planes_4.png	R	0	0	0	335.014300100011	335.214300399995
89441.5	100	636	17	1	9	24	3	12	0	0	0	stim004_stimuli_original_animals_birds_4.png	T	0	0	0	335.414309500018	335.614307900018
89541.5	100	637	17	1	9	25	0	4	0	1	0	stim001_stimuli_original_animals_birds_1.png	E	0	0	0	335.81432060001	336.014316200017
89641.25	100	638	17	1	9	26	10	6	0	0	0	stim011_stimuli_original_vehicles_boats_3.png	G	0	0	0	336.214299300016	336.414329100022
89741.5	100	639	17	1	9	27	13	4	0	1	1	stim014_stimuli_original_vehicles_planes_2.png	E	0	0	0	336.614339899999	336.814339400007
89841.5	100	640	17	1	9	28	15	9	0	0	0	stim016_stimuli_original_vehicles_planes_4.png	L	0	0	0	337.014347400022	337.214346699999
89941.5	100	641	17	1	9	29	4	7	0	0	0	stim005_stimuli_original_animals_fish_1.png	J	0	0	0	337.414358400012	337.614353000012
90041.5	100	642	17	1	9	30	2	3	0	0	0	stim003_stimuli_original_animals_birds_3.png	D	0	0	0	337.81438180001	338.014371500001
90141.5	100	643	17	1	9	31	8	8	0	0	0	stim009_stimuli_original_vehicles_boats_1.png	K	0	0	0	338.214379100013	338.41437850002
90241.5	100	644	17	1	9	32	7	0	0	0	0	stim008_stimuli_original_animals_fish_4.png	A	0	0	0	338.614386000001	338.814394300018
90341.5	100	645	17	1	9	33	5	13	0	0	0	stim006_stimuli_original_animals_fish_2.png	U	0	0	0	339.01440320001	339.214393900009
90441.5	100	646	17	1	9	34	11	2	0	0	0	stim012_stimuli_original_vehicles_boats_4.png	C	0	0	0	339.414408400015	339.614404499996
90541.5	100	647	17	1	9	35	1	10	0	0	0	stim002_stimuli_original_animals_birds_2.png	Q	0	0	0	339.814420200011	340.014416399994
92116.5	100	648	18	0	23	0	9	10	0	0	0	stim010_stimuli_original_vehicles_boats_2.png	Q	0	0	0	346.114551200008	346.314545000001
92216.5	100	649	18	0	23	1	1	4	0	0	0	stim002_stimuli_original_animals_birds_2.png	E	0	0	0	346.514554599999	346.714554400009
92316.5	100	650	18	0	23	2	8	5	0	0	0	stim009_stimuli_original_vehicles_boats_1.png	F	0	0	0	346.914565400017	347.114563900017
92416.5	100	651	18	0	23	3	0	1	0	0	0	stim001_stimuli_original_animals_birds_1.png	B	0	0	0	347.314576000004	347.514574300003
92516.5	100	652	18	0	23	4	11	11	0	0	0	stim012_stimuli_original_vehicles_boats_4.png	R	0	0	0	347.714588900009	347.91458500002
92616.5	100	653	18	0	23	5	7	7	1	0	0	stim008_stimuli_original_animals_fish_4.png	J	0	0	0	348.114595200022	348.314595100004
92716.5	100	654	18	0	23	6	6	2	0	0	0	stim007_stimuli_original_animals_fish_3.png	C	0	0	0	348.514605600009	348.714606699999
92816.5	100	655	18	0	23	7	7	12	1	0	1	stim008_stimuli_original_animals_fish_4.png	T	0	0	0	348.914615000016	349.114612800011
92916.5	100	656	18	0	23	8	13	13	0	0	0	stim014_stimuli_original_vehicles_planes_2.png	U	0	0	0	349.314623800019	349.514622100018
93016.5	100	657	18	0	23	9	10	8	0	0	0	stim011_stimuli_original_vehicles_boats_3.png	K	0	0	0	349.714632500021	349.914633900014
93116.5	100	658	18	0	23	10	3	14	0	0	0	stim004_stimuli_original_animals_birds_4.png	V	0	0	0	350.114644200017	350.31464310002
93216.5	100	659	18	0	23	11	15	9	0	0	0	stim016_stimuli_original_vehicles_planes_4.png	L	0	0	0	350.514652800019	350.714652399998
93316.5	100	660	18	0	23	12	2	7	0	1	0	stim003_stimuli_original_animals_birds_3.png	J	0	0	0	350.914662700001	351.11466230001
93416.5	100	661	18	0	23	13	7	0	0	0	0	stim008_stimuli_original_animals_fish_4.png	A	0	0	0	351.314674299996	351.514670000004
93516.5	100	662	18	0	23	14	14	7	0	1	0	stim015_stimuli_original_vehicles_planes_3.png	J	0	0	0	351.714681600017	351.914682100003
93616.5	100	663	18	0	23	15	4	6	0	0	0	stim005_stimuli_original_animals_fish_1.png	G	0	0	0	352.114691299998	352.314691000007
93716.5	100	664	18	0	23	16	12	15	0	0	0	stim013_stimuli_original_vehicles_planes_1.png	Y	0	0	0	352.514703299996	352.714700600016
93816.5	100	665	18	0	23	17	5	3	0	0	0	stim006_stimuli_original_animals_fish_2.png	D	0	0	0	352.914723800001	353.114711700007
93916.5	100	666	18	0	23	18	3	5	0	0	0	stim004_stimuli_original_animals_birds_4.png	F	0	0	0	353.314721500006	353.51472050001
94016.5	100	667	18	0	23	19	15	12	0	0	0	stim016_stimuli_original_vehicles_planes_4.png	T	d	353.707327200013	0	353.714728599996	353.914730599994
94116.5	100	668	18	0	23	20	6	4	0	0	0	stim007_stimuli_original_animals_fish_3.png	E	0	0	0	354.114740999998	354.31473860002
94216.5	100	669	18	0	23	21	7	14	1	0	0	stim008_stimuli_original_animals_fish_4.png	V	0	0	0	354.514749800001	354.714748700004
94316.5	100	670	18	0	23	22	0	7	0	0	0	stim001_stimuli_original_animals_birds_1.png	J	0	0	0	354.914759300009	355.114759400021
94416.5	100	671	18	0	23	23	7	2	1	0	1	stim008_stimuli_original_animals_fish_4.png	C	0	0	0	355.314773300022	355.514773600007
94516.5	100	672	18	0	23	24	9	15	0	0	0	stim010_stimuli_original_vehicles_boats_2.png	Y	0	0	0	355.714781000017	355.914778800012
94616.5	100	673	18	0	23	25	14	3	0	0	0	stim015_stimuli_original_vehicles_planes_3.png	D	0	0	0	356.114788200008	356.314792699995
94716.5	100	674	18	0	23	26	8	10	0	0	0	stim009_stimuli_original_vehicles_boats_1.png	Q	0	0	0	356.514799299999	356.714819300018
94816.5	100	675	18	0	23	27	13	13	0	0	0	stim014_stimuli_original_vehicles_planes_2.png	U	0	0	0	356.914812200004	357.114808200015
94916.5	100	676	18	0	23	28	12	7	0	1	0	stim013_stimuli_original_vehicles_planes_1.png	J	0	0	0	357.314817800012	357.514815500006
95016.5	100	677	18	0	23	29	2	6	0	0	0	stim003_stimuli_original_animals_birds_3.png	G	0	0	0	357.714826100011	357.914831200003
95116.5	100	678	18	0	23	30	7	7	0	1	0	stim008_stimuli_original_animals_fish_4.png	J	0	0	0	358.114836699999	358.314834699995
95216.5	100	679	18	0	23	31	11	11	0	0	0	stim012_stimuli_original_vehicles_boats_4.png	R	0	0	0	358.514846200007	358.714846600022
95316.5	100	680	18	0	23	32	1	0	0	0	0	stim002_stimuli_original_animals_birds_2.png	A	0	0	0	358.914855700015	359.114854000014
95416.5	100	681	18	0	23	33	5	8	0	0	0	stim006_stimuli_original_animals_fish_2.png	K	0	0	0	359.314866300003	359.514864600002
95516.5	100	682	18	0	23	34	4	1	0	0	0	stim005_stimuli_original_animals_fish_1.png	B	0	0	0	359.714877100021	359.914874700014
95616.5	100	683	18	0	23	35	10	9	0	0	0	stim011_stimuli_original_vehicles_boats_3.png	L	0	0	0	360.114884800016	360.314924200007
96258.25	100	684	19	1	11	0	1	14	0	0	0	stim002_stimuli_original_animals_birds_2.png	V	0	0	0	362.681626400008	362.881642699998
96358.25	100	685	19	1	11	1	7	1	0	0	0	stim008_stimuli_original_animals_fish_4.png	B	0	0	0	363.081625399995	363.281648600008
96458.25	100	686	19	1	11	2	15	0	0	0	0	stim016_stimuli_original_vehicles_planes_4.png	A	0	0	0	363.481656699994	363.681656800007
96558.25	100	687	19	1	11	3	10	2	0	0	0	stim011_stimuli_original_vehicles_boats_3.png	C	0	0	0	363.88166710001	364.08166690002
96658.25	100	688	19	1	11	4	11	9	0	0	0	stim012_stimuli_original_vehicles_boats_4.png	L	0	0	0	364.281657400017	364.481652799994
96758.25	100	689	19	1	11	5	6	13	0	0	0	stim007_stimuli_original_animals_fish_3.png	U	0	0	0	364.681664600008	364.881664900022
96858.25	100	690	19	1	11	6	8	10	1	0	0	stim009_stimuli_original_vehicles_boats_1.png	Q	0	0	0	365.081671100023	365.281693900004
96958.25	100	691	19	1	11	7	13	4	0	0	0	stim014_stimuli_original_vehicles_planes_2.png	E	0	0	0	365.48168300002	365.681681300019
97058.25	100	692	19	1	11	8	8	12	1	0	0	stim009_stimuli_original_vehicles_boats_1.png	T	0	0	0	365.881692199997	366.081690499996
97158.25	100	693	19	1	11	9	9	3	0	0	0	stim010_stimuli_original_vehicles_boats_2.png	D	0	0	0	366.281702700013	366.481699700002
97258.25	100	694	19	1	11	10	0	15	0	1	0	stim001_stimuli_original_animals_birds_1.png	Y	0	0	0	366.681712999998	366.881710600021
97358.25	100	695	19	1	11	11	5	5	0	0	0	stim006_stimuli_original_animals_fish_2.png	F	0	0	0	367.081720899994	367.281720200001
97458.25	100	696	19	1	11	12	8	15	0	1	1	stim009_stimuli_original_vehicles_boats_1.png	Y	0	0	0	367.481731700012	367.6817285
97558.25	100	697	19	1	11	13	12	8	0	0	0	stim013_stimuli_original_vehicles_planes_1.png	K	d	368.073533200019	1	367.881739500008	368.081741600006
97658.25	100	698	19	1	11	14	4	6	0	0	0	stim005_stimuli_original_animals_fish_1.png	G	0	0	0	368.281751900009	368.481749300001
97758.25	100	699	19	1	11	15	3	7	0	0	0	stim004_stimuli_original_animals_birds_4.png	J	0	0	0	368.681762199994	368.88175890001
97858.25	100	700	19	1	11	16	2	15	0	0	0	stim003_stimuli_original_animals_birds_3.png	Y	0	0	0	369.081769200013	369.281766400003
97958.25	100	701	19	1	11	17	14	11	0	0	0	stim015_stimuli_original_vehicles_planes_3.png	R	0	0	0	369.481780100003	369.681777799997
98058.25	100	702	19	1	11	18	11	14	0	0	0	stim012_stimuli_original_vehicles_boats_4.png	V	0	0	0	369.881789200008	370.081789799995
98158.25	100	703	19	1	11	19	15	2	0	0	0	stim016_stimuli_original_vehicles_planes_4.png	C	0	0	0	370.281800700002	370.481799300003
98258.25	100	704	19	1	11	20	7	3	0	0	0	stim008_stimuli_original_animals_fish_4.png	D	0	0	0	370.681807900022	370.881807099999
98358.25	100	705	19	1	11	21	6	4	0	0	0	stim007_stimuli_original_animals_fish_3.png	E	0	0	0	371.081818300008	371.281817500014
98458.25	100	706	19	1	11	22	8	12	0	0	0	stim009_stimuli_original_vehicles_boats_1.png	T	0	0	0	371.481826800009	371.681825200008
98558.25	100	707	19	1	11	23	15	8	1	0	0	stim016_stimuli_original_vehicles_planes_4.png	K	0	0	0	371.881835800014	372.081836199999
98658.25	100	708	19	1	11	24	5	5	0	0	0	stim006_stimuli_original_animals_fish_2.png	F	0	0	0	372.281852800021	372.481850600016
98758.25	100	709	19	1	11	25	15	0	1	0	0	stim016_stimuli_original_vehicles_planes_4.png	A	0	0	0	372.681855500006	372.881857100001
98858.25	100	710	19	1	11	26	3	9	0	0	0	stim004_stimuli_original_animals_birds_4.png	L	0	0	0	373.081866799999	373.281865199999
98958.25	100	711	19	1	11	27	12	8	0	1	0	stim013_stimuli_original_vehicles_planes_1.png	K	0	0	0	373.481877000013	373.681876100018
99058.25	100	712	19	1	11	28	4	13	0	0	0	stim005_stimuli_original_animals_fish_1.png	U	0	0	0	373.881885300012	374.081887100008
99158.25	100	713	19	1	11	29	10	8	0	1	1	stim011_stimuli_original_vehicles_boats_3.png	K	0	0	0	374.281897500012	374.481895100005
99258.25	100	714	19	1	11	30	13	6	0	0	0	stim014_stimuli_original_vehicles_planes_2.png	G	d	374.8736967	1	374.681906100013	374.881904000009
99358.25	100	715	19	1	11	31	9	11	0	0	0	stim010_stimuli_original_vehicles_boats_2.png	R	0	0	0	375.081913900009	375.281915500003
99458.25	100	716	19	1	11	32	2	10	0	0	0	stim003_stimuli_original_animals_birds_3.png	Q	0	0	0	375.481924000022	375.681922999996
99558.25	100	717	19	1	11	33	0	15	0	0	0	stim001_stimuli_original_animals_birds_1.png	Y	0	0	0	375.881934000005	376.081932200002
99658.25	100	718	19	1	11	34	1	7	0	0	0	stim002_stimuli_original_animals_birds_2.png	J	0	0	0	376.281942900008	376.481943899998
99758.25	100	719	19	1	11	35	14	1	0	0	0	stim015_stimuli_original_vehicles_planes_3.png	B	0	0	0	376.681954600004	376.881951699994
100395.75	100	720	20	0	2	0	8	0	0	0	0	stim009_stimuli_original_vehicles_boats_1.png	A	0	0	0	379.232030100015	379.432025700022
100495.75	100	721	20	0	2	1	10	12	0	0	0	stim011_stimuli_original_vehicles_boats_3.png	T	0	0	0	379.632038200012	379.832037600019
100595.75	100	722	20	0	2	2	0	9	0	0	0	stim001_stimuli_original_animals_birds_1.png	L	0	0	0	380.032060400001	380.232045900018
100695.75	100	723	20	0	2	3	15	5	0	0	0	stim016_stimuli_original_vehicles_planes_4.png	F	0	0	0	380.432061700005	380.632056600007
100795.75	100	724	20	0	2	4	3	14	0	0	0	stim004_stimuli_original_animals_birds_4.png	V	0	0	0	380.832066500006	381.032065600011
100895.75	100	725	20	0	2	5	5	10	0	0	0	stim006_stimuli_original_animals_fish_2.png	Q	0	0	0	381.232075900014	381.432072199997
100995.75	100	726	20	0	2	6	6	13	0	1	0	stim007_stimuli_original_animals_fish_3.png	U	0	0	0	381.632087400008	381.832083400019
101095.75	100	727	20	0	2	7	11	2	0	0	0	stim012_stimuli_original_vehicles_boats_4.png	C	0	0	0	382.032096500014	382.232078100002
101195.75	100	728	20	0	2	8	4	13	0	1	0	stim005_stimuli_original_animals_fish_1.png	U	0	0	0	382.432106599997	382.632106300007
101295.75	100	729	20	0	2	9	9	1	0	0	0	stim010_stimuli_original_vehicles_boats_2.png	B	0	0	0	382.832128600014	383.032114000001
101395.75	100	730	20	0	2	10	5	7	1	0	0	stim006_stimuli_original_animals_fish_2.png	J	0	0	0	383.232124500006	383.432123200007
101495.75	100	731	20	0	2	11	12	15	0	0	0	stim013_stimuli_original_vehicles_planes_1.png	Y	0	0	0	383.632133900013	383.832131300005
101595.75	100	732	20	0	2	12	5	13	1	0	1	stim006_stimuli_original_animals_fish_2.png	U	0	0	0	384.032143599994	384.23214420001
101695.75	100	733	20	0	2	13	1	8	0	0	0	stim002_stimuli_original_animals_birds_2.png	K	d	384.623939900019	1	384.432152099995	384.632150400023
101795.75	100	734	20	0	2	14	7	3	0	0	0	stim008_stimuli_original_animals_fish_4.png	D	0	0	0	384.832187799999	385.032162100018
101895.75	100	735	20	0	2	15	13	4	0	0	0	stim014_stimuli_original_vehicles_planes_2.png	E	0	0	0	385.232172699994	385.432186200022
101995.75	100	736	20	0	2	16	14	11	0	0	0	stim015_stimuli_original_vehicles_planes_3.png	R	0	0	0	385.632182500005	385.832186600019
102095.75	100	737	20	0	2	17	2	6	0	0	0	stim003_stimuli_original_animals_birds_3.png	G	0	0	0	386.03219160001	386.232192800002
102195.75	100	738	20	0	2	18	6	2	0	0	0	stim007_stimuli_original_animals_fish_3.png	C	0	0	0	386.432202600001	386.632201300003
102295.75	100	739	20	0	2	19	11	14	0	0	0	stim012_stimuli_original_vehicles_boats_4.png	V	0	0	0	386.832213300018	387.03221200002
102395.75	100	740	20	0	2	20	4	13	0	0	0	stim005_stimuli_original_animals_fish_1.png	U	0	0	0	387.232219900005	387.432244700001
102495.75	100	741	20	0	2	21	3	7	0	0	0	stim004_stimuli_original_animals_birds_4.png	J	0	0	0	387.63223290001	387.832228600018
102595.75	100	742	20	0	2	22	8	1	0	0	0	stim009_stimuli_original_vehicles_boats_1.png	B	0	0	0	388.032253400015	388.232240000012
102695.75	100	743	20	0	2	23	13	5	0	1	0	stim014_stimuli_original_vehicles_planes_2.png	F	0	0	0	388.43224960001	388.632249300019
102795.75	100	744	20	0	2	24	15	12	0	0	0	stim016_stimuli_original_vehicles_planes_4.png	T	0	0	0	388.83225940002	389.032260700013
102895.75	100	745	20	0	2	25	7	5	0	1	0	stim008_stimuli_original_animals_fish_4.png	F	0	0	0	389.232268799999	389.432267199998
102995.75	100	746	20	0	2	26	1	9	0	0	0	stim002_stimuli_original_animals_birds_2.png	L	0	0	0	389.632275900018	389.832276800007
103096	100	747	20	0	2	27	13	4	1	0	0	stim014_stimuli_original_vehicles_planes_2.png	E	0	0	0	390.032300799998	390.232287100021
103195.75	100	748	20	0	2	28	2	11	0	0	0	stim003_stimuli_original_animals_birds_3.png	R	0	0	0	390.432297699997	390.63229910002
103296	100	749	20	0	2	29	13	6	1	0	1	stim014_stimuli_original_vehicles_planes_2.png	G	0	0	0	390.832309899997	391.032310600014
103396	100	750	20	0	2	30	10	5	0	0	0	stim011_stimuli_original_vehicles_boats_3.png	F	0	0	0	391.232319600007	391.4323171
103496	100	751	20	0	2	31	14	3	0	0	0	stim015_stimuli_original_vehicles_planes_3.png	D	d	391.624863100005	1	391.632327200001	391.832327100012
103596	100	752	20	0	2	32	5	15	0	0	0	stim006_stimuli_original_animals_fish_2.png	Y	0	0	0	392.032336600008	392.232361900009
103696	100	753	20	0	2	33	9	0	0	0	0	stim010_stimuli_original_vehicles_boats_2.png	A	0	0	0	392.432345800014	392.632359400013
103796	100	754	20	0	2	34	12	10	0	0	0	stim013_stimuli_original_vehicles_planes_1.png	Q	0	0	0	392.832372900011	393.032356200012
103896	100	755	20	0	2	35	0	8	0	0	0	stim001_stimuli_original_animals_birds_1.png	K	0	0	0	393.232366400014	393.43236570002
104816.75	100	756	21	1	7	0	0	8	0	0	0	stim001_stimuli_original_animals_birds_1.png	K	0	0	0	396.915793000022	397.115803599998
104916.75	100	757	21	1	7	1	13	12	0	0	0	stim014_stimuli_original_vehicles_planes_2.png	T	0	0	0	397.315814000001	397.515810500016
105016.75	100	758	21	1	7	2	12	2	0	0	0	stim013_stimuli_original_vehicles_planes_1.png	C	0	0	0	397.715840599994	397.91581820001
105116.75	100	759	21	1	7	3	4	3	0	0	0	stim005_stimuli_original_animals_fish_1.png	D	0	0	0	398.11583580001	398.315828100021
105216.75	100	760	21	1	7	4	5	11	0	0	0	stim006_stimuli_original_animals_fish_2.png	R	0	0	0	398.515837500017	398.715839900018
105316.75	100	761	21	1	7	5	15	0	0	0	0	stim016_stimuli_original_vehicles_planes_4.png	A	0	0	0	398.915850000019	399.115849900001
105416.75	100	762	21	1	7	6	14	14	0	0	0	stim015_stimuli_original_vehicles_planes_3.png	V	0	0	0	399.315860700008	399.515824400005
105516.75	100	763	21	1	7	7	7	13	0	0	0	stim008_stimuli_original_animals_fish_4.png	U	0	0	0	399.715869100008	399.915867600008
105616.75	100	764	21	1	7	8	8	15	0	0	0	stim009_stimuli_original_vehicles_boats_1.png	Y	0	0	0	400.115878800018	400.315878699999
105716.75	100	765	21	1	7	9	3	10	1	0	0	stim004_stimuli_original_animals_birds_4.png	Q	0	0	0	400.515910999995	400.715886799997
105816.75	100	766	21	1	7	10	6	1	0	0	0	stim007_stimuli_original_animals_fish_3.png	B	0	0	0	400.915899300016	401.115895199997
105916.75	100	767	21	1	7	11	3	13	1	1	0	stim004_stimuli_original_animals_birds_4.png	U	0	0	0	401.315908599994	401.515907399997
106016.75	100	768	21	1	7	12	2	6	0	0	0	stim003_stimuli_original_animals_birds_3.png	G	0	0	0	401.715917900001	401.915918600018
106116.75	100	769	21	1	7	13	9	13	0	1	1	stim010_stimuli_original_vehicles_boats_2.png	U	0	0	0	402.115930600005	402.315936900006
106216.75	100	770	21	1	7	14	11	4	0	0	0	stim012_stimuli_original_vehicles_boats_4.png	E	0	0	0	402.515937300021	402.715914200002
106316.75	100	771	21	1	7	15	3	7	0	0	0	stim004_stimuli_original_animals_birds_4.png	J	d	402.908501800004	1	402.915922000015	403.115925699996
106416.75	100	772	21	1	7	16	10	9	0	0	0	stim011_stimuli_original_vehicles_boats_3.png	L	0	0	0	403.31593360001	403.515930399997
106516.75	100	773	21	1	7	17	1	5	0	0	0	stim002_stimuli_original_animals_birds_2.png	F	0	0	0	403.715943899995	403.915966900007
106616.75	100	774	21	1	7	18	5	1	0	0	0	stim006_stimuli_original_animals_fish_2.png	B	0	0	0	404.11595040001	404.315952500008
106716.75	100	775	21	1	7	19	9	10	0	0	0	stim010_stimuli_original_vehicles_boats_2.png	Q	0	0	0	404.515963600017	404.7159598
106816.75	100	776	21	1	7	20	7	3	0	0	0	stim008_stimuli_original_animals_fish_4.png	D	0	0	0	404.915986800013	405.115969300008
106916.75	100	777	21	1	7	21	4	11	0	0	0	stim005_stimuli_original_animals_fish_1.png	R	0	0	0	405.315986200003	405.515982800018
107016.75	100	778	21	1	7	22	13	9	1	0	0	stim014_stimuli_original_vehicles_planes_2.png	L	0	0	0	405.7159942	405.915989400004
107116.75	100	779	21	1	7	23	6	2	0	0	0	stim007_stimuli_original_animals_fish_3.png	C	0	0	0	406.1160026	406.315999400016
107216.75	100	780	21	1	7	24	13	3	1	1	0	stim014_stimuli_original_vehicles_planes_2.png	D	0	0	0	406.516010499996	406.716009199998
107316.75	100	781	21	1	7	25	1	6	0	0	0	stim002_stimuli_original_animals_birds_2.png	G	0	0	0	406.916019199998	407.11601920001
107416.75	100	782	21	1	7	26	10	3	0	1	1	stim011_stimuli_original_vehicles_boats_3.png	D	0	0	0	407.316028600006	407.516027000005
107516.75	100	783	21	1	7	27	15	8	0	0	0	stim016_stimuli_original_vehicles_planes_4.png	K	0	0	0	407.716039699997	407.91603990001
107616.75	100	784	21	1	7	28	13	7	0	0	0	stim014_stimuli_original_vehicles_planes_2.png	J	0	0	0	408.116048900003	408.316046199994
107716.75	100	785	21	1	7	29	14	14	0	0	0	stim015_stimuli_original_vehicles_planes_3.png	V	0	0	0	408.516058500012	408.716057200014
107816.75	100	786	21	1	7	30	0	15	0	0	0	stim001_stimuli_original_animals_birds_1.png	Y	0	0	0	408.9160692	409.116067199997
107916.75	100	787	21	1	7	31	11	5	0	0	0	stim012_stimuli_original_vehicles_boats_4.png	F	0	0	0	409.316079700016	409.516077400011
108016.75	100	788	21	1	7	32	3	4	0	0	0	stim004_stimuli_original_animals_birds_4.png	E	0	0	0	409.716088400019	409.9160882
108116.75	100	789	21	1	7	33	2	12	0	0	0	stim003_stimuli_original_animals_birds_3.png	T	0	0	0	410.116098400002	410.316095800023
108216.75	100	790	21	1	7	34	12	13	0	0	0	stim013_stimuli_original_vehicles_planes_1.png	U	0	0	0	410.516107500007	410.716105700005
108316.75	100	791	21	1	7	35	8	0	0	0	0	stim009_stimuli_original_vehicles_boats_1.png	A	0	0	0	410.91611760002	411.116115200013
109508.5	100	792	22	0	13	0	14	5	0	0	0	stim015_stimuli_original_vehicles_planes_3.png	F	0	0	0	415.682899500011	415.882899300021
109608.5	100	793	22	0	13	1	0	0	0	0	0	stim001_stimuli_original_animals_birds_1.png	A	0	0	0	416.082908100012	416.2829088
109708.5	100	794	22	0	13	2	12	15	0	0	0	stim013_stimuli_original_vehicles_planes_1.png	Y	0	0	0	416.482917800022	416.682918300008
109808.5	100	795	22	0	13	3	11	10	0	0	0	stim012_stimuli_original_vehicles_boats_4.png	Q	d	417.083105600002	0	416.882929600019	417.0829294
109908.5	100	796	22	0	13	4	5	14	0	0	0	stim006_stimuli_original_animals_fish_2.png	V	0	0	0	417.282937800017	417.482936800021
110008.5	100	797	22	0	13	5	7	3	0	0	0	stim008_stimuli_original_animals_fish_4.png	D	0	0	0	417.682946999994	417.882955000008
110108.5	100	798	22	0	13	6	4	12	0	0	0	stim005_stimuli_original_animals_fish_1.png	T	0	0	0	418.082962900022	418.282961499994
110208.5	100	799	22	0	13	7	10	8	0	0	0	stim011_stimuli_original_vehicles_boats_3.png	K	0	0	0	418.482966400014	418.682966799999
110308.5	100	800	22	0	13	8	13	7	0	0	0	stim014_stimuli_original_vehicles_planes_2.png	J	0	0	0	418.882979999995	419.082974200021
110408.5	100	801	22	0	13	9	11	2	1	0	0	stim012_stimuli_original_vehicles_boats_4.png	C	0	0	0	419.282985400001	419.4829837
