onset	duration	eventnumber	sequencenumber	condition	streamnumber	stimnumber	objectstimnumber	letterstimnumber	objecttarget	lettertarget	is2back	objectstim	letterstim	response	rt	correct	time_stimon	time_stimoff
25612.75	100	0	0	1	26	0	14	14	0	0	0	stim015_stimuli_original_vehicles_planes_3.png	V	0	0	0	112.081924800063	112.281907099998
25712.75	100	1	0	1	26	1	10	11	0	0	0	stim011_stimuli_original_vehicles_boats_3.png	R	0	0	0	112.482238800032	112.681936400011
25812.75	100	2	0	1	26	2	3	13	0	0	0	stim004_stimuli_original_animals_birds_4.png	U	0	0	0	112.881930000032	113.08193049999
25912.75	100	3	0	1	26	3	12	4	0	0	0	stim013_stimuli_original_vehicles_planes_1.png	E	0	0	0	113.281952499994	113.481938399957
26012.75	100	4	0	1	26	4	1	15	0	0	0	stim002_stimuli_original_animals_birds_2.png	Y	0	0	0	113.68195280002	113.881952199969
26112.75	100	5	0	1	26	5	7	6	0	0	0	stim008_stimuli_original_animals_fish_4.png	G	0	0	0	114.081963900011	114.281959500047
26212.75	100	6	0	1	26	6	13	8	0	0	0	stim014_stimuli_original_vehicles_planes_2.png	K	0	0	0	114.481972199981	114.681973900064
26312.75	100	7	0	1	26	7	1	2	1	0	0	stim002_stimuli_original_animals_birds_2.png	C	0	0	0	114.881993800052	115.081994800013
26412.75	100	8	0	1	26	8	2	12	0	0	0	stim003_stimuli_original_animals_birds_3.png	T	0	0	0	115.282045	115.482005500002
26512.75	100	9	0	1	26	9	1	15	1	1	0	stim002_stimuli_original_animals_birds_2.png	Y	0	0	0	115.682016000035	115.88203139999
26612.75	100	10	0	1	26	10	8	9	0	0	0	stim009_stimuli_original_vehicles_boats_1.png	L	0	0	0	116.082026400021	116.28202579997
26712.75	100	11	0	1	26	11	5	15	0	1	1	stim006_stimuli_original_animals_fish_2.png	Y	0	0	0	116.482037400012	116.682035600068
26812.75	100	12	0	1	26	12	0	5	0	0	0	stim001_stimuli_original_animals_birds_1.png	F	d	117.073865900049	1	116.88204679999	117.082049599965
26912.75	100	13	0	1	26	13	6	7	0	0	0	stim007_stimuli_original_animals_fish_3.png	J	0	0	0	117.282060199999	117.482058600057
27012.75	100	14	0	1	26	14	9	1	0	0	0	stim010_stimuli_original_vehicles_boats_2.png	B	0	0	0	117.682070199982	117.882227099966
27112.75	100	15	0	1	26	15	11	3	0	0	0	stim012_stimuli_original_vehicles_boats_4.png	D	0	0	0	118.082109500072	118.282075700001
27212.75	100	16	0	1	26	16	4	0	0	0	0	stim005_stimuli_original_animals_fish_1.png	A	0	0	0	118.482109999983	118.682113299961
27312.75	100	17	0	1	26	17	15	10	0	0	0	stim016_stimuli_original_vehicles_planes_4.png	Q	0	0	0	118.882122599985	119.082121500047
27412.75	100	18	0	1	26	18	10	15	0	0	0	stim011_stimuli_original_vehicles_boats_3.png	Y	0	0	0	119.282133899978	119.482131300028
27512.75	100	19	0	1	26	19	0	4	0	0	0	stim001_stimuli_original_animals_birds_1.png	E	0	0	0	119.682141200057	119.882143500028
27612.75	100	20	0	1	26	20	3	11	0	0	0	stim004_stimuli_original_animals_birds_4.png	R	0	0	0	120.082169400062	120.282153100008
27712.75	100	21	0	1	26	21	1	9	0	0	0	stim002_stimuli_original_animals_birds_2.png	L	0	0	0	120.482165700058	120.682147299987
27812.75	100	22	0	1	26	22	7	6	0	0	0	stim008_stimuli_original_animals_fish_4.png	G	0	0	0	120.882174200029	121.08217519999
27912.75	100	23	0	1	26	23	5	0	0	0	0	stim006_stimuli_original_animals_fish_2.png	A	0	0	0	121.282183200005	121.482186499983
28012.75	100	24	0	1	26	24	15	5	1	0	0	stim016_stimuli_original_vehicles_planes_4.png	F	0	0	0	121.682198100025	121.882196499966
28112.75	100	25	0	1	26	25	9	8	0	0	0	stim010_stimuli_original_vehicles_boats_2.png	K	0	0	0	122.082206799998	122.282208899967
28212.75	100	26	0	1	26	26	15	1	1	1	0	stim016_stimuli_original_vehicles_planes_4.png	B	0	0	0	122.48221799999	122.682217000052
28312.75	100	27	0	1	26	27	12	2	0	0	0	stim013_stimuli_original_vehicles_planes_1.png	C	0	0	0	122.882222900051	123.08222500002
28412.75	100	28	0	1	26	28	2	1	0	1	1	stim003_stimuli_original_animals_birds_3.png	B	0	0	0	123.282235200051	123.482232599985
28512.75	100	29	0	1	26	29	8	13	0	0	0	stim009_stimuli_original_vehicles_boats_1.png	U	0	0	0	123.682250000071	123.882245199988
28612.75	100	30	0	1	26	30	6	7	0	0	0	stim007_stimuli_original_animals_fish_3.png	J	0	0	0	124.082258100039	124.282252800069
28712.75	100	31	0	1	26	31	15	1	0	0	0	stim016_stimuli_original_vehicles_planes_4.png	B	0	0	0	124.482263099984	124.682259300025
28812.75	100	32	0	1	26	32	4	12	0	0	0	stim005_stimuli_original_animals_fish_1.png	T	0	0	0	124.88227609999	125.082275500055
28912.75	100	33	0	1	26	33	13	3	0	0	0	stim014_stimuli_original_vehicles_planes_2.png	D	d	125.274815200013	1	125.282293800032	125.482271200046
29012.75	100	34	0	1	26	34	11	10	0	0	0	stim012_stimuli_original_vehicles_boats_4.png	Q	0	0	0	125.68229659996	125.882293500006
29112.75	100	35	0	1	26	35	14	14	0	0	0	stim015_stimuli_original_vehicles_planes_3.png	V	0	0	0	126.08231009997	126.282309600036
29804.5	100	36	1	0	33	0	0	1	0	0	0	stim001_stimuli_original_animals_birds_1.png	B	0	0	0	128.849034199957	129.049034100026
29904.5	100	37	1	0	33	1	15	2	0	0	0	stim016_stimuli_original_vehicles_planes_4.png	C	0	0	0	129.249044000055	129.449046200025
30004.5	100	38	1	0	33	2	3	12	0	0	0	stim004_stimuli_original_animals_birds_4.png	T	0	0	0	129.649056300055	129.849057500018
30104.5	100	39	1	0	33	3	8	6	0	0	0	stim009_stimuli_original_vehicles_boats_1.png	G	0	0	0	130.04906790005	130.249064699979
30204.5	100	40	1	0	33	4	7	10	0	0	0	stim008_stimuli_original_animals_fish_4.png	Q	0	0	0	130.449077600031	130.649075199966
30304.5	100	41	1	0	33	5	11	13	0	0	0	stim012_stimuli_original_vehicles_boats_4.png	U	0	0	0	130.849086300004	131.049085900071
30404.5	100	42	1	0	33	6	5	11	0	0	0	stim006_stimuli_original_animals_fish_2.png	R	0	0	0	131.249098300003	131.449096400058
30504.5	100	43	1	0	33	7	9	14	0	0	0	stim010_stimuli_original_vehicles_boats_2.png	V	0	0	0	131.649110700004	131.849109500065
30604.5	100	44	1	0	33	8	3	5	1	0	0	stim004_stimuli_original_animals_birds_4.png	F	0	0	0	132.049117899965	132.249120800057
30704.5	100	45	1	0	33	9	14	3	0	0	0	stim015_stimuli_original_vehicles_planes_3.png	D	0	0	0	132.449129899964	132.649127100012
30804.5	100	46	1	0	33	10	3	7	1	0	1	stim004_stimuli_original_animals_birds_4.png	J	0	0	0	132.849141199957	133.049139900017
30904.5	100	47	1	0	33	11	12	4	0	0	0	stim013_stimuli_original_vehicles_planes_1.png	E	d	133.440942800022	1	133.249150800053	133.449151100009
31004.5	100	48	1	0	33	12	10	9	0	1	0	stim011_stimuli_original_vehicles_boats_3.png	L	0	0	0	133.649167499971	133.84916480002
31104.5	100	49	1	0	33	13	13	0	0	0	0	stim014_stimuli_original_vehicles_planes_2.png	A	0	0	0	134.049174500047	134.249174500001
31204.5	100	50	1	0	33	14	6	9	0	1	0	stim007_stimuli_original_animals_fish_3.png	L	0	0	0	134.449184600031	134.649181299959
31304.5	100	51	1	0	33	15	2	8	0	0	0	stim003_stimuli_original_animals_birds_3.png	K	0	0	0	134.849192599999	135.049194299965
31404.5	100	52	1	0	33	16	4	15	0	0	0	stim005_stimuli_original_animals_fish_1.png	Y	0	0	0	135.249206600012	135.449209199985
31504.5	100	53	1	0	33	17	1	9	0	0	0	stim002_stimuli_original_animals_birds_2.png	L	0	0	0	135.649215999991	135.849217000068
31604.5	100	54	1	0	33	18	9	1	0	0	0	stim010_stimuli_original_vehicles_boats_2.png	B	0	0	0	136.049225299968	136.249225600041
31704.5	100	55	1	0	33	19	15	4	0	0	0	stim016_stimuli_original_vehicles_planes_4.png	E	0	0	0	136.449260600028	136.649237200036
31804.5	100	56	1	0	33	20	8	2	0	0	0	stim009_stimuli_original_vehicles_boats_1.png	C	0	0	0	136.849247300066	137.049248400028
31904.5	100	57	1	0	33	21	9	6	1	0	0	stim010_stimuli_original_vehicles_boats_2.png	G	0	0	0	137.249257700052	137.449256099993
32004.5	100	58	1	0	33	22	0	13	0	0	0	stim001_stimuli_original_animals_birds_1.png	U	0	0	0	137.649268700043	137.849268499995
32104.5	100	59	1	0	33	23	9	10	1	0	1	stim010_stimuli_original_vehicles_boats_2.png	Q	0	0	0	138.049284400069	138.249278499978
32204.5	100	60	1	0	33	24	4	12	0	0	0	stim005_stimuli_original_animals_fish_1.png	T	0	0	0	138.449289900018	138.649291399983
32304.5	100	61	1	0	33	25	7	3	0	1	0	stim008_stimuli_original_animals_fish_4.png	D	0	0	0	138.849302600021	139.049300799961
32404.5	100	62	1	0	33	26	3	14	0	0	0	stim004_stimuli_original_animals_birds_4.png	V	0	0	0	139.249309899984	139.449310000055
32504.5	100	63	1	0	33	27	5	3	0	1	0	stim006_stimuli_original_animals_fish_2.png	D	0	0	0	139.649320999975	139.849323600065
32604.5	100	64	1	0	33	28	14	9	0	0	0	stim015_stimuli_original_vehicles_planes_3.png	L	0	0	0	140.049332099967	140.24933520006
32704.5	100	65	1	0	33	29	11	5	0	0	0	stim012_stimuli_original_vehicles_boats_4.png	F	0	0	0	140.449344299966	140.649345200043
32804.5	100	66	1	0	33	30	13	11	0	0	0	stim014_stimuli_original_vehicles_planes_2.png	R	0	0	0	140.849352300051	141.049353200011
32904.5	100	67	1	0	33	31	10	7	0	0	0	stim011_stimuli_original_vehicles_boats_3.png	J	0	0	0	141.24936570006	141.449366900022
33004.5	100	68	1	0	33	32	6	8	0	0	0	stim007_stimuli_original_animals_fish_3.png	K	0	0	0	141.649375800043	141.849375799997
33104.5	100	69	1	0	33	33	12	3	0	0	0	stim013_stimuli_original_vehicles_planes_1.png	D	0	0	0	142.049384500016	142.2493885
33204.5	100	70	1	0	33	34	2	15	0	0	0	stim003_stimuli_original_animals_birds_3.png	Y	0	0	0	142.449399400037	142.649397199973
33304.5	100	71	1	0	33	35	1	0	0	0	0	stim002_stimuli_original_animals_birds_2.png	A	0	0	0	142.849408200011	143.049407499959
34667	100	72	2	1	19	0	15	2	0	0	0	stim016_stimuli_original_vehicles_planes_4.png	C	0	0	0	148.299565900001	148.499566000071
34767	100	73	2	1	19	1	12	4	0	0	0	stim013_stimuli_original_vehicles_planes_1.png	E	0	0	0	148.699604299967	148.899574600044
34867	100	74	2	1	19	2	4	12	0	0	0	stim005_stimuli_original_animals_fish_1.png	T	0	0	0	149.09958769998	149.29958370002
34967	100	75	2	1	19	3	8	14	0	0	0	stim009_stimuli_original_vehicles_boats_1.png	V	0	0	0	149.499600599986	149.699598000036
35067	100	76	2	1	19	4	6	11	1	0	0	stim007_stimuli_original_animals_fish_3.png	R	0	0	0	149.899606400053	150.099607900018
35167	100	77	2	1	19	5	10	13	0	0	0	stim011_stimuli_original_vehicles_boats_3.png	U	0	0	0	150.299622599967	150.499614999979
35267	100	78	2	1	19	6	6	15	1	0	0	stim007_stimuli_original_animals_fish_3.png	Y	0	0	0	150.699636799982	150.899628899992
35367	100	79	2	1	19	7	9	0	0	0	0	stim010_stimuli_original_vehicles_boats_2.png	A	0	0	0	151.099638000014	151.299646800035
35467	100	80	2	1	19	8	1	6	0	0	0	stim002_stimuli_original_animals_birds_2.png	G	0	0	0	151.49964970001	151.699651499977
35567	100	81	2	1	19	9	0	9	0	0	0	stim001_stimuli_original_animals_birds_1.png	L	0	0	0	151.899670100072	152.099659800064
35667	100	82	2	1	19	10	6	10	0	0	0	stim007_stimuli_original_animals_fish_3.png	Q	0	0	0	152.299670499982	152.499674499966
35767	100	83	2	1	19	11	5	7	0	0	0	stim006_stimuli_original_animals_fish_2.png	J	0	0	0	152.699680899968	152.899684200063
35867	100	84	2	1	19	12	11	6	0	1	0	stim012_stimuli_original_vehicles_boats_4.png	G	0	0	0	153.09969199996	153.299660600023
35967	100	85	2	1	19	13	3	3	0	0	0	stim004_stimuli_original_animals_birds_4.png	D	d	153.691494000028	0	153.499704999966	153.69970430003
36067	100	86	2	1	19	14	2	6	0	1	1	stim003_stimuli_original_animals_birds_3.png	G	0	0	0	153.899714600062	154.099710599985
36167	100	87	2	1	19	15	7	5	0	0	0	stim008_stimuli_original_animals_fish_4.png	F	0	0	0	154.299726400059	154.4997248
36267	100	88	2	1	19	16	14	8	0	0	0	stim015_stimuli_original_vehicles_planes_3.png	K	0	0	0	154.699734000023	154.899735399988
36367	100	89	2	1	19	17	13	1	0	0	0	stim014_stimuli_original_vehicles_planes_2.png	B	0	0	0	155.099750500056	155.299742700066
36467	100	90	2	1	19	18	1	13	0	0	0	stim002_stimuli_original_animals_birds_2.png	U	0	0	0	155.499757500016	155.699756999966
36567	100	91	2	1	19	19	8	14	0	0	0	stim009_stimuli_original_vehicles_boats_1.png	V	0	0	0	155.899765999988	156.099783100071
36667	100	92	2	1	19	20	5	7	0	0	0	stim006_stimuli_original_animals_fish_2.png	J	0	0	0	156.299778599991	156.499779200065
36767	100	93	2	1	19	21	6	2	1	0	0	stim007_stimuli_original_animals_fish_3.png	C	0	0	0	156.699795800028	156.899789600051
36867	100	94	2	1	19	22	3	3	0	0	0	stim004_stimuli_original_animals_birds_4.png	D	0	0	0	157.099797800067	157.299803200061
36967	100	95	2	1	19	23	6	11	1	0	0	stim007_stimuli_original_animals_fish_3.png	R	0	0	0	157.49981519999	157.699814600055
37067	100	96	2	1	19	24	7	5	0	0	0	stim008_stimuli_original_animals_fish_4.png	F	0	0	0	157.899824999971	158.099805700011
37167	100	97	2	1	19	25	10	6	0	0	0	stim011_stimuli_original_vehicles_boats_3.png	G	0	0	0	158.299831600045	158.499850900029
37267	100	98	2	1	19	26	9	0	0	0	0	stim010_stimuli_original_vehicles_boats_2.png	A	0	0	0	158.699853700004	158.899842399987
37367	100	99	2	1	19	27	6	1	0	0	0	stim007_stimuli_original_animals_fish_3.png	B	0	0	0	159.09985540004	159.299855399993
37467	100	100	2	1	19	28	0	9	0	0	0	stim001_stimuli_original_animals_birds_1.png	L	0	0	0	159.499863100005	159.69986459997
37567	100	101	2	1	19	29	15	6	0	1	0	stim016_stimuli_original_vehicles_planes_4.png	G	0	0	0	159.899880300043	160.099870500038
37667	100	102	2	1	19	30	13	10	0	0	0	stim014_stimuli_original_vehicles_planes_2.png	Q	0	0	0	160.299889000016	160.499884100049
37767	100	103	2	1	19	31	11	6	0	1	1	stim012_stimuli_original_vehicles_boats_4.png	G	0	0	0	160.699884500005	160.899895800045
37867	100	104	2	1	19	32	14	8	0	0	0	stim015_stimuli_original_vehicles_planes_3.png	K	d	161.300084499991	1	161.09991400002	161.299910600064
37967	100	105	2	1	19	33	12	4	0	0	0	stim013_stimuli_original_vehicles_planes_1.png	E	0	0	0	161.499919199967	161.699916200014
38067	100	106	2	1	19	34	4	12	0	0	0	stim005_stimuli_original_animals_fish_1.png	T	0	0	0	161.899941300042	162.099924999988
38167	100	107	2	1	19	35	2	15	0	0	0	stim003_stimuli_original_animals_birds_3.png	Y	0	0	0	162.299938100041	162.499938099994
39004.75	100	108	3	0	31	0	10	1	0	0	0	stim011_stimuli_original_vehicles_boats_3.png	B	0	0	0	165.650007599965	165.850015999982
39104.75	100	109	3	0	31	1	12	10	0	0	0	stim013_stimuli_original_vehicles_planes_1.png	Q	0	0	0	166.050016300054	166.250015700003
39204.75	100	110	3	0	31	2	14	0	0	0	0	stim015_stimuli_original_vehicles_planes_3.png	A	0	0	0	166.450027300045	166.650037399959
39304.75	100	111	3	0	31	3	11	5	0	0	0	stim012_stimuli_original_vehicles_boats_4.png	F	0	0	0	166.850039100042	167.050036999979
39404.75	100	112	3	0	31	4	9	3	0	0	0	stim010_stimuli_original_vehicles_boats_2.png	D	0	0	0	167.250047500012	167.450047799968
39504.75	100	113	3	0	31	5	4	6	0	0	0	stim005_stimuli_original_animals_fish_1.png	G	0	0	0	167.650071699987	167.85005889996
39604.75	100	114	3	0	31	6	8	15	0	1	0	stim009_stimuli_original_vehicles_boats_1.png	Y	0	0	0	168.050099099986	168.250069700065
39704.75	100	115	3	0	31	7	7	2	0	0	0	stim008_stimuli_original_animals_fish_4.png	C	0	0	0	168.450079199974	168.650093600038
39804.75	100	116	3	0	31	8	0	15	0	1	0	stim001_stimuli_original_animals_birds_1.png	Y	0	0	0	168.85009079997	169.050102500012
39904.75	100	117	3	0	31	9	6	13	0	0	0	stim007_stimuli_original_animals_fish_3.png	U	0	0	0	169.250121199992	169.450099600013
40004.75	100	118	3	0	31	10	4	8	1	0	0	stim005_stimuli_original_animals_fish_1.png	K	0	0	0	169.650120700011	169.85011140001
40104.75	100	119	3	0	31	11	15	9	0	0	0	stim016_stimuli_original_vehicles_planes_4.png	L	0	0	0	170.050122100045	170.250122600002
40204.75	100	120	3	0	31	12	4	14	1	0	1	stim005_stimuli_original_animals_fish_1.png	V	0	0	0	170.45013500005	170.650160399964
40304.75	100	121	3	0	31	13	1	12	0	0	0	stim002_stimuli_original_animals_birds_2.png	T	0	0	0	170.85014460003	171.050142399967
40404.75	100	122	3	0	31	14	13	7	0	0	0	stim014_stimuli_original_vehicles_planes_2.png	J	0	0	0	171.250175900059	171.45015769999
40504.75	100	123	3	0	31	15	3	15	0	0	0	stim004_stimuli_original_animals_birds_4.png	Y	0	0	0	171.650166500011	171.850164000061
40604.75	100	124	3	0	31	16	2	11	0	0	0	stim003_stimuli_original_animals_birds_3.png	R	0	0	0	172.050178900012	172.250175900059
40704.75	100	125	3	0	31	17	5	4	0	0	0	stim006_stimuli_original_animals_fish_2.png	E	0	0	0	172.450185199967	172.650194099988
40804.75	100	126	3	0	31	18	4	5	0	0	0	stim005_stimuli_original_animals_fish_1.png	F	0	0	0	172.850195900071	173.050198300043
40904.75	100	127	3	0	31	19	11	2	0	0	0	stim012_stimuli_original_vehicles_boats_4.png	C	0	0	0	173.250221300055	173.450206400012
41004.75	100	128	3	0	31	20	15	3	0	0	0	stim016_stimuli_original_vehicles_planes_4.png	D	0	0	0	173.650233400054	173.850219900021
41104.75	100	129	3	0	31	21	7	13	0	0	0	stim008_stimuli_original_animals_fish_4.png	U	0	0	0	174.050230400055	174.250229400001
41204.75	100	130	3	0	31	22	12	1	0	0	0	stim013_stimuli_original_vehicles_planes_1.png	B	0	0	0	174.450239900034	174.650239499984
41304.75	100	131	3	0	31	23	14	4	0	1	0	stim015_stimuli_original_vehicles_planes_3.png	E	d	175.042074600002	0	174.850250400021	175.050248799962
41404.75	100	132	3	0	31	24	9	15	0	0	0	stim010_stimuli_original_vehicles_boats_2.png	Y	0	0	0	175.250261000008	175.450280499994
41504.75	100	133	3	0	31	25	8	4	0	1	0	stim009_stimuli_original_vehicles_boats_1.png	E	0	0	0	175.650286299991	175.850298100035
41604.75	100	134	3	0	31	26	13	6	0	0	0	stim014_stimuli_original_vehicles_planes_2.png	G	0	0	0	176.050282799988	176.25028310006
41704.75	100	135	3	0	31	27	15	0	1	0	0	stim016_stimuli_original_vehicles_planes_4.png	A	0	0	0	176.450297100004	176.650304900017
41804.75	100	136	3	0	31	28	2	7	0	0	0	stim003_stimuli_original_animals_birds_3.png	J	0	0	0	176.85031800007	177.050315700006
41904.75	100	137	3	0	31	29	15	8	1	0	1	stim016_stimuli_original_vehicles_planes_4.png	K	0	0	0	177.250326000038	177.45032459998
42004.75	100	138	3	0	31	30	6	4	0	0	0	stim007_stimuli_original_animals_fish_3.png	E	0	0	0	177.650340000051	177.85033419996
42104.75	100	139	3	0	31	31	3	9	0	0	0	stim004_stimuli_original_animals_birds_4.png	L	0	0	0	178.050374299986	178.25034560007
42204.75	100	140	3	0	31	32	5	11	0	0	0	stim006_stimuli_original_animals_fish_2.png	R	0	0	0	178.450359600014	178.650357500068
42304.75	100	141	3	0	31	33	0	14	0	0	0	stim001_stimuli_original_animals_birds_1.png	V	0	0	0	178.850367999985	179.050377200008
42404.75	100	142	3	0	31	34	10	12	0	0	0	stim011_stimuli_original_vehicles_boats_3.png	T	0	0	0	179.250378899975	179.450379300048
42504.75	100	143	3	0	31	35	1	10	0	0	0	stim002_stimuli_original_animals_birds_2.png	Q	0	0	0	179.650387600064	179.850392500055
43242.25	100	144	4	1	18	0	4	14	0	0	0	stim005_stimuli_original_animals_fish_1.png	V	0	0	0	182.600472799968	182.800463799969
43342.25	100	145	4	1	18	1	5	12	0	0	0	stim006_stimuli_original_animals_fish_2.png	T	0	0	0	183.000479900045	183.20047869999
43442.25	100	146	4	1	18	2	2	0	0	0	0	stim003_stimuli_original_animals_birds_3.png	A	0	0	0	183.400503700017	183.600478900014
43542.25	100	147	4	1	18	3	3	4	0	0	0	stim004_stimuli_original_animals_birds_4.png	E	0	0	0	183.800502800033	184.000499999966
43642.25	100	148	4	1	18	4	14	9	1	0	0	stim015_stimuli_original_vehicles_planes_3.png	L	0	0	0	184.20051190001	184.400512099965
43742.25	100	149	4	1	18	5	6	8	0	1	0	stim007_stimuli_original_animals_fish_3.png	K	0	0	0	184.600522199995	184.800525599974
43842.25	100	150	4	1	18	6	14	2	1	0	0	stim015_stimuli_original_vehicles_planes_3.png	C	0	0	0	185.000534699997	185.200532200048
43942.25	100	151	4	1	18	7	1	8	0	1	1	stim002_stimuli_original_animals_birds_2.png	K	0	0	0	185.40055650007	185.600547000067
44042.25	100	152	4	1	18	8	10	10	0	0	0	stim011_stimuli_original_vehicles_boats_3.png	Q	d	185.992356500006	1	185.800555799971	186.000557800056
44142.25	100	153	4	1	18	9	7	1	0	0	0	stim008_stimuli_original_animals_fish_4.png	B	0	0	0	186.20056649996	186.400565500022
44242.25	100	154	4	1	18	10	14	11	0	0	0	stim015_stimuli_original_vehicles_planes_3.png	R	0	0	0	186.600575700053	186.800576600013
44342.25	100	155	4	1	18	11	13	8	0	0	0	stim014_stimuli_original_vehicles_planes_2.png	K	0	0	0	187.000587700051	187.200587400002
44442.25	100	156	4	1	18	12	9	15	0	0	0	stim010_stimuli_original_vehicles_boats_2.png	Y	0	0	0	187.40059710003	187.600609599962
44542.25	100	157	4	1	18	13	8	6	0	0	0	stim009_stimuli_original_vehicles_boats_1.png	G	0	0	0	187.80060810002	188.000615900033
44642.25	100	158	4	1	18	14	15	3	0	0	0	stim016_stimuli_original_vehicles_planes_4.png	D	0	0	0	188.200632199994	188.400617500069
44742.25	100	159	4	1	18	15	11	13	0	0	0	stim012_stimuli_original_vehicles_boats_4.png	U	0	0	0	188.600626999978	188.800628700061
44842.25	100	160	4	1	18	16	12	5	0	0	0	stim013_stimuli_original_vehicles_planes_1.png	F	0	0	0	189.000639699982	189.200643699965
44942.25	100	161	4	1	18	17	0	7	0	0	0	stim001_stimuli_original_animals_birds_1.png	J	0	0	0	189.4006544	189.600650800043
45042.25	100	162	4	1	18	18	7	0	0	0	0	stim008_stimuli_original_animals_fish_4.png	A	0	0	0	189.800663199974	190.000662000035
45142.25	100	163	4	1	18	19	5	12	0	0	0	stim006_stimuli_original_animals_fish_2.png	T	0	0	0	190.200700900052	190.40067090001
45242.25	100	164	4	1	18	20	13	11	0	0	0	stim014_stimuli_original_vehicles_planes_2.png	R	0	0	0	190.600680000032	190.800699900021
45342.25	100	165	4	1	18	21	3	15	0	0	0	stim004_stimuli_original_animals_birds_4.png	Y	0	0	0	191.000693800044	191.200699100038
45442.25	100	166	4	1	18	22	6	8	0	0	0	stim007_stimuli_original_animals_fish_3.png	K	0	0	0	191.400712699979	191.600702199969
45542.25	100	167	4	1	18	23	15	9	0	0	0	stim016_stimuli_original_vehicles_planes_4.png	L	0	0	0	191.800713200006	192.000716199982
45642.25	100	168	4	1	18	24	8	13	0	0	0	stim009_stimuli_original_vehicles_boats_1.png	U	0	0	0	192.200724299997	192.400723700062
45742.25	100	169	4	1	18	25	11	14	0	0	0	stim012_stimuli_original_vehicles_boats_4.png	V	0	0	0	192.600736099994	192.800762800034
45842.25	100	170	4	1	18	26	1	7	0	0	0	stim002_stimuli_original_animals_birds_2.png	J	0	0	0	193.000745999976	193.20074790006
45942.25	100	171	4	1	18	27	10	10	0	0	0	stim011_stimuli_original_vehicles_boats_3.png	Q	0	0	0	193.400772299967	193.600757600041
46042.25	100	172	4	1	18	28	8	1	1	0	0	stim009_stimuli_original_vehicles_boats_1.png	B	0	0	0	193.800767700071	194.00076700002
46142.25	100	173	4	1	18	29	2	14	0	1	0	stim003_stimuli_original_animals_birds_3.png	V	0	0	0	194.20078189997	194.400780700031
46242.25	100	174	4	1	18	30	8	6	1	0	0	stim009_stimuli_original_vehicles_boats_1.png	G	0	0	0	194.600790000055	194.80079410004
46342.25	100	175	4	1	18	31	9	14	0	1	1	stim010_stimuli_original_vehicles_boats_2.png	V	d	194.993420999963	1	195.000803800067	195.200802600011
46442.25	100	176	4	1	18	32	4	3	0	0	0	stim005_stimuli_original_animals_fish_1.png	D	0	0	0	195.400831600069	195.600811199984
46542.25	100	177	4	1	18	33	0	2	0	0	0	stim001_stimuli_original_animals_birds_1.png	C	0	0	0	195.800823900034	196.000820699963
46642.25	100	178	4	1	18	34	12	5	0	0	0	stim013_stimuli_original_vehicles_planes_1.png	F	0	0	0	196.200836200034	196.400831400068
46742.25	100	179	4	1	18	35	14	4	0	0	0	stim015_stimuli_original_vehicles_planes_3.png	E	0	0	0	196.600842199987	196.80084270006
47859	100	180	5	0	39	0	15	15	0	0	0	stim016_stimuli_original_vehicles_planes_4.png	Y	0	0	0	201.067643700051	201.267641099985
47959	100	181	5	0	39	1	6	12	0	0	0	stim007_stimuli_original_animals_fish_3.png	T	0	0	0	201.46765180002	201.66765139997
48059	100	182	5	0	39	2	11	13	0	0	0	stim012_stimuli_original_vehicles_boats_4.png	U	0	0	0	201.867663800018	202.067660700064
48159	100	183	5	0	39	3	0	1	0	0	0	stim001_stimuli_original_animals_birds_1.png	B	0	0	0	202.267676000018	202.46767579997
48259	100	184	5	0	39	4	1	14	0	0	0	stim002_stimuli_original_animals_birds_2.png	V	0	0	0	202.667667699978	202.867683000048
48359	100	185	5	0	39	5	13	5	0	0	0	stim014_stimuli_original_vehicles_planes_2.png	F	0	0	0	203.067693299963	203.267695700051
48459	100	186	5	0	39	6	3	4	0	0	0	stim004_stimuli_original_animals_birds_4.png	E	0	0	0	203.467709699995	203.66770250001
48559	100	187	5	0	39	7	10	7	0	0	0	stim011_stimuli_original_vehicles_boats_3.png	J	0	0	0	203.867717499961	204.067712899996
48659	100	188	5	0	39	8	2	9	0	0	0	stim003_stimuli_original_animals_birds_3.png	L	0	0	0	204.267725100042	204.4677256
48759	100	189	5	0	39	9	0	0	1	0	0	stim001_stimuli_original_animals_birds_1.png	A	0	0	0	204.667734500021	204.867738700006
48859	100	190	5	0	39	10	14	8	0	0	0	stim015_stimuli_original_vehicles_planes_3.png	K	0	0	0	205.067745500011	205.267719800002
48959	100	191	5	0	39	11	0	7	1	1	1	stim001_stimuli_original_animals_birds_1.png	J	0	0	0	205.467773000011	205.667758699972
49059	100	192	5	0	39	12	8	3	0	0	0	stim009_stimuli_original_vehicles_boats_1.png	D	0	0	0	205.867772300029	206.067769499961
49159	100	193	5	0	39	13	5	7	0	1	0	stim006_stimuli_original_animals_fish_2.png	J	0	0	0	206.26777809998	206.46778149996
49259	100	194	5	0	39	14	4	2	0	0	0	stim005_stimuli_original_animals_fish_1.png	C	0	0	0	206.667794600013	206.867792400066
49359	100	195	5	0	39	15	9	11	0	0	0	stim010_stimuli_original_vehicles_boats_2.png	R	0	0	0	207.06780650001	207.267803600058
49459	100	196	5	0	39	16	7	10	0	0	0	stim008_stimuli_original_animals_fish_4.png	Q	0	0	0	207.467814599979	207.667812800035
49559	100	197	5	0	39	17	12	6	0	0	0	stim013_stimuli_original_vehicles_planes_1.png	G	0	0	0	207.867848000024	208.067818499985
49659	100	198	5	0	39	18	6	12	0	0	0	stim007_stimuli_original_animals_fish_3.png	T	0	0	0	208.267834900063	208.46783660003
49759	100	199	5	0	39	19	10	7	0	0	0	stim011_stimuli_original_vehicles_boats_3.png	J	0	0	0	208.667846900062	208.86784760002
49859	100	200	5	0	39	20	11	9	0	0	0	stim012_stimuli_original_vehicles_boats_4.png	L	0	0	0	209.067857300048	209.267856099992
49959	100	201	5	0	39	21	2	4	0	0	0	stim003_stimuli_original_animals_birds_3.png	E	0	0	0	209.467868400039	209.667865999974
50059	100	202	5	0	39	22	7	5	1	0	0	stim008_stimuli_original_animals_fish_4.png	F	0	0	0	209.867880600039	210.067880999995
50159	100	203	5	0	39	23	3	8	0	0	0	stim004_stimuli_original_animals_birds_4.png	K	0	0	0	210.267893300042	210.46788770007
50259	100	204	5	0	39	24	7	0	1	1	1	stim008_stimuli_original_animals_fish_4.png	A	0	0	0	210.667899799999	210.86789870006
50359	100	205	5	0	39	25	8	14	0	0	0	stim009_stimuli_original_vehicles_boats_1.png	V	0	0	0	211.067910499987	211.267910000053
50459	100	206	5	0	39	26	0	0	0	1	0	stim001_stimuli_original_animals_birds_1.png	A	0	0	0	211.467924700002	211.667919600033
50559	100	207	5	0	39	27	9	2	0	0	0	stim010_stimuli_original_vehicles_boats_2.png	C	0	0	0	211.867930400069	212.067934200051
50659	100	208	5	0	39	28	7	10	0	0	0	stim008_stimuli_original_animals_fish_4.png	Q	0	0	0	212.26794619998	212.467941300012
50759	100	209	5	0	39	29	4	3	0	0	0	stim005_stimuli_original_animals_fish_1.png	D	0	0	0	212.667907600058	212.867942100042
50859	100	210	5	0	39	30	5	13	0	0	0	stim006_stimuli_original_animals_fish_2.png	U	0	0	0	213.067968899966	213.267966900021
50959	100	211	5	0	39	31	14	1	0	0	0	stim015_stimuli_original_vehicles_planes_3.png	B	0	0	0	213.46797420003	213.667979400023
51059	100	212	5	0	39	32	1	0	0	0	0	stim002_stimuli_original_animals_birds_2.png	A	0	0	0	213.867983700009	214.067982000066
51159	100	213	5	0	39	33	13	11	0	0	0	stim014_stimuli_original_vehicles_planes_2.png	R	0	0	0	214.267995600007	214.467997299973
51259	100	214	5	0	39	34	12	6	0	0	0	stim013_stimuli_original_vehicles_planes_1.png	G	0	0	0	214.668010500027	214.868005100056
51359	100	215	5	0	39	35	15	15	0	0	0	stim016_stimuli_original_vehicles_planes_4.png	Y	0	0	0	215.068017599988	215.268027300015
51963.25	100	216	6	1	36	0	13	0	0	0	0	stim014_stimuli_original_vehicles_planes_2.png	A	0	0	0	217.484751699958	217.684747199994
52063.25	100	217	6	1	36	1	0	11	0	0	0	stim001_stimuli_original_animals_birds_1.png	R	0	0	0	217.884758500033	218.084769800073
52163.25	100	218	6	1	36	2	2	9	0	0	0	stim003_stimuli_original_animals_birds_3.png	L	0	0	0	218.284770800034	218.484793900046
52263.25	100	219	6	1	36	3	10	12	0	0	0	stim011_stimuli_original_vehicles_boats_3.png	T	0	0	0	218.684784900048	218.884780599969
52363.25	100	220	6	1	36	4	7	4	0	0	0	stim008_stimuli_original_animals_fish_4.png	E	0	0	0	219.084796000039	219.284791000071
52463.25	100	221	6	1	36	5	11	7	0	0	0	stim012_stimuli_original_vehicles_boats_4.png	J	0	0	0	219.484797899961	219.684797200025
52563.25	100	222	6	1	36	6	12	1	0	0	0	stim013_stimuli_original_vehicles_planes_1.png	B	0	0	0	219.884811499971	220.08480880002
52663.25	100	223	6	1	36	7	14	15	0	0	0	stim015_stimuli_original_vehicles_planes_3.png	Y	0	0	0	220.28482150007	220.484820100013
52763.25	100	224	6	1	36	8	3	13	0	0	0	stim004_stimuli_original_animals_birds_4.png	U	0	0	0	220.684829500038	220.884831800009
52863.25	100	225	6	1	36	9	10	3	1	0	0	stim011_stimuli_original_vehicles_boats_3.png	D	0	0	0	221.084844000055	221.284853299963
52963.25	100	226	6	1	36	10	6	8	0	0	0	stim007_stimuli_original_animals_fish_3.png	K	0	0	0	221.484853700036	221.684852099977
53063.25	100	227	6	1	36	11	10	11	1	1	0	stim011_stimuli_original_vehicles_boats_3.png	R	0	0	0	221.884863100015	222.084864599979
53163.25	100	228	6	1	36	12	1	10	0	0	0	stim002_stimuli_original_animals_birds_2.png	Q	0	0	0	222.28487209999	222.484876399976
53263.25	100	229	6	1	36	13	5	11	0	1	1	stim006_stimuli_original_animals_fish_2.png	R	0	0	0	222.684887900017	222.884875299991
53363.25	100	230	6	1	36	14	8	5	0	0	0	stim009_stimuli_original_vehicles_boats_1.png	F	0	0	0	223.084893699968	223.284859600011
53463.25	100	231	6	1	36	15	4	2	0	0	0	stim005_stimuli_original_animals_fish_1.png	C	d	223.676695800037	1	223.484907199978	223.684906300041
53563.25	100	232	6	1	36	16	15	14	0	0	0	stim016_stimuli_original_vehicles_planes_4.png	V	0	0	0	223.88491839997	224.084919000044
53663.25	100	233	6	1	36	17	9	6	0	0	0	stim010_stimuli_original_vehicles_boats_2.png	G	d	224.476712099975	1	224.284926900058	224.484928700025
53763.25	100	234	6	1	36	18	6	9	0	0	0	stim007_stimuli_original_animals_fish_3.png	L	0	0	0	224.684942699969	224.884937900002
53863.25	100	235	6	1	36	19	14	15	0	0	0	stim015_stimuli_original_vehicles_planes_3.png	Y	0	0	0	225.084951700061	225.284949299996
53963.25	100	236	6	1	36	20	2	4	0	0	0	stim003_stimuli_original_animals_birds_3.png	E	0	0	0	225.484961900045	225.684961899999
54063.25	100	237	6	1	36	21	5	8	0	0	0	stim006_stimuli_original_animals_fish_2.png	K	0	0	0	225.884983900003	226.084990600008
54163.25	100	238	6	1	36	22	11	5	1	0	0	stim012_stimuli_original_vehicles_boats_4.png	F	0	0	0	226.28496119997	226.484959800029
54263.25	100	239	6	1	36	23	10	1	0	0	0	stim011_stimuli_original_vehicles_boats_3.png	B	0	0	0	226.684970300063	226.884992000065
54363.25	100	240	6	1	36	24	11	10	1	1	0	stim012_stimuli_original_vehicles_boats_4.png	Q	0	0	0	227.084993800032	227.284991099965
54463.25	100	241	6	1	36	25	8	6	0	0	0	stim009_stimuli_original_vehicles_boats_1.png	G	0	0	0	227.485002700007	227.685002599959
54563.25	100	242	6	1	36	26	3	10	0	1	1	stim004_stimuli_original_animals_birds_4.png	Q	0	0	0	227.885014800006	228.085012500058
54663.25	100	243	6	1	36	27	13	3	0	0	0	stim014_stimuli_original_vehicles_planes_2.png	D	0	0	0	228.28504810005	228.485044699977
54763.25	100	244	6	1	36	28	15	14	0	0	0	stim016_stimuli_original_vehicles_planes_4.png	V	0	0	0	228.68505510001	228.885060300003
54863.25	100	245	6	1	36	29	1	12	0	0	0	stim002_stimuli_original_animals_birds_2.png	T	0	0	0	229.085063099978	229.285067399964
54963.25	100	246	6	1	36	30	7	11	0	0	0	stim008_stimuli_original_animals_fish_4.png	R	0	0	0	229.485059599974	229.685077600065
55063.25	100	247	6	1	36	31	4	7	0	0	0	stim005_stimuli_original_animals_fish_1.png	J	0	0	0	229.88508659997	230.085083000013
55163.25	100	248	6	1	36	32	12	10	0	0	0	stim013_stimuli_original_vehicles_planes_1.png	Q	0	0	0	230.285095200059	230.485092899995
55263.25	100	249	6	1	36	33	9	2	0	0	0	stim010_stimuli_original_vehicles_boats_2.png	C	d	230.677707200055	0	230.685100700008	230.885101699969
55363.25	100	250	6	1	36	34	11	0	0	0	0	stim012_stimuli_original_vehicles_boats_4.png	A	0	0	0	231.08511059999	231.285113299964
55463.25	100	251	6	1	36	35	0	13	0	0	0	stim001_stimuli_original_animals_birds_1.png	U	0	0	0	231.48512940004	231.685128199984
56292.5	100	252	7	0	25	0	15	4	0	0	0	stim016_stimuli_original_vehicles_planes_4.png	E	d	234.794549199985	0	234.801877600024	235.001883400022
56392.5	100	253	7	0	25	1	7	2	0	0	0	stim008_stimuli_original_animals_fish_4.png	C	0	0	0	235.201889700023	235.401888099965
56492.5	100	254	7	0	25	2	10	11	0	0	0	stim011_stimuli_original_vehicles_boats_3.png	R	0	0	0	235.601887800032	235.801901299972
56592.5	100	255	7	0	25	3	13	15	0	0	0	stim014_stimuli_original_vehicles_planes_2.png	Y	0	0	0	236.00191890006	236.20191189996
56692.5	100	256	7	0	25	4	9	10	0	0	0	stim010_stimuli_original_vehicles_boats_2.png	Q	0	0	0	236.401919899974	236.601923500071
56792.5	100	257	7	0	25	5	3	8	0	1	0	stim004_stimuli_original_animals_birds_4.png	K	0	0	0	236.801933699986	237.001934900065
56892.5	100	258	7	0	25	6	14	9	1	0	0	stim015_stimuli_original_vehicles_planes_3.png	L	0	0	0	237.201941500069	237.401942100027
56992.5	100	259	7	0	25	7	1	8	0	1	0	stim002_stimuli_original_animals_birds_2.png	K	0	0	0	237.601952900062	237.801961899968
57092.5	100	260	7	0	25	8	14	7	1	0	1	stim015_stimuli_original_vehicles_planes_3.png	J	0	0	0	238.001963200048	238.201962699997
57192.5	100	261	7	0	25	9	12	13	0	0	0	stim013_stimuli_original_vehicles_planes_1.png	U	0	0	0	238.401975200046	238.601977200015
57292.5	100	262	7	0	25	10	0	5	0	0	0	stim001_stimuli_original_animals_birds_1.png	F	0	0	0	238.801974600065	239.00198619999
57392.5	100	263	7	0	25	11	2	14	0	0	0	stim003_stimuli_original_animals_birds_3.png	V	0	0	0	239.20199760003	239.401994399959
57492.5	100	264	7	0	25	12	14	0	0	0	0	stim015_stimuli_original_vehicles_planes_3.png	A	0	0	0	239.602006100002	239.802003500052
57592.5	100	265	7	0	25	13	6	8	0	0	0	stim007_stimuli_original_animals_fish_3.png	K	0	0	0	240.002018600004	240.202013800037
57692.5	100	266	7	0	25	14	4	1	0	0	0	stim005_stimuli_original_animals_fish_1.png	B	0	0	0	240.401993100066	240.602034199983
57792.5	100	267	7	0	25	15	11	12	0	0	0	stim012_stimuli_original_vehicles_boats_4.png	T	0	0	0	240.801962599973	241.002026400063
57892.5	100	268	7	0	25	16	8	3	0	0	0	stim009_stimuli_original_vehicles_boats_1.png	D	0	0	0	241.202043200028	241.402059999993
57992.5	100	269	7	0	25	17	5	6	0	0	0	stim006_stimuli_original_animals_fish_2.png	G	0	0	0	241.602060300065	241.802057299996
58092.5	100	270	7	0	25	18	6	5	0	0	0	stim007_stimuli_original_animals_fish_3.png	F	0	0	0	242.002072300063	242.202068099985
58192.5	100	271	7	0	25	19	3	8	0	0	0	stim004_stimuli_original_animals_birds_4.png	K	0	0	0	242.402078300016	242.602081399993
58292.5	100	272	7	0	25	20	12	11	0	0	0	stim013_stimuli_original_vehicles_planes_1.png	R	0	0	0	242.802094300045	243.002076199977
58392.5	100	273	7	0	25	21	1	4	0	0	0	stim002_stimuli_original_animals_birds_2.png	E	0	0	0	243.202105100034	243.402070000069
58492.5	100	274	7	0	25	22	8	6	0	0	0	stim009_stimuli_original_vehicles_boats_1.png	G	d	243.793905999977	0	243.602112099994	243.802109600045
58592.5	100	275	7	0	25	23	0	14	0	0	0	stim001_stimuli_original_animals_birds_1.png	V	0	0	0	244.002120399964	244.202123000054
58692.5	100	276	7	0	25	24	14	2	0	0	0	stim015_stimuli_original_vehicles_planes_3.png	C	0	0	0	244.402133599971	244.60213080002
58792.5	100	277	7	0	25	25	5	0	0	0	0	stim006_stimuli_original_animals_fish_2.png	A	0	0	0	244.802146099973	245.002141800011
58892.5	100	278	7	0	25	26	13	12	0	0	0	stim014_stimuli_original_vehicles_planes_2.png	T	0	0	0	245.202156799962	245.402153200004
58992.5	100	279	7	0	25	27	7	14	0	1	0	stim008_stimuli_original_animals_fish_4.png	V	0	0	0	245.602171899984	245.802165400004
59092.5	100	280	7	0	25	28	8	1	1	0	0	stim009_stimuli_original_vehicles_boats_1.png	B	0	0	0	246.002177900053	246.202191199991
59192.5	100	281	7	0	25	29	9	14	0	1	0	stim010_stimuli_original_vehicles_boats_2.png	V	0	0	0	246.402187700034	246.602186199976
59292.5	100	282	7	0	25	30	8	3	1	0	1	stim009_stimuli_original_vehicles_boats_1.png	D	0	0	0	246.802199800033	247.002221900038
59392.5	100	283	7	0	25	31	10	9	0	0	0	stim011_stimuli_original_vehicles_boats_3.png	L	d	247.2071001	1	247.202207099996	247.40221119998
59492.75	100	284	7	0	25	32	15	13	0	0	0	stim016_stimuli_original_vehicles_planes_4.png	U	0	0	0	247.602220100001	247.802219000063
59592.75	100	285	7	0	25	33	11	10	0	0	0	stim012_stimuli_original_vehicles_boats_4.png	Q	0	0	0	248.002226799959	248.202229400049
59692.75	100	286	7	0	25	34	2	7	0	0	0	stim003_stimuli_original_animals_birds_3.png	J	0	0	0	248.402238100069	248.602246199967
59792.75	100	287	7	0	25	35	4	15	0	0	0	stim005_stimuli_original_animals_fish_1.png	Y	0	0	0	248.802262600046	249.002253500046
61338.5	100	288	8	1	40	0	6	7	0	0	0	stim007_stimuli_original_animals_fish_3.png	J	0	0	0	254.985766500002	255.185726800002
61438.5	100	289	8	1	40	1	12	2	0	0	0	stim013_stimuli_original_vehicles_planes_1.png	C	0	0	0	255.385740700061	255.585737999994
61538.5	100	290	8	1	40	2	13	14	0	0	0	stim014_stimuli_original_vehicles_planes_2.png	V	0	0	0	255.785749700037	255.985746199964
61638.5	100	291	8	1	40	3	2	10	0	0	0	stim003_stimuli_original_animals_birds_3.png	Q	0	0	0	256.185757500003	256.385758699966
61738.5	100	292	8	1	40	4	9	9	0	0	0	stim010_stimuli_original_vehicles_boats_2.png	L	0	0	0	256.585772400023	256.78576800006
61838.5	100	293	8	1	40	5	15	12	0	1	0	stim016_stimuli_original_vehicles_planes_4.png	T	0	0	0	256.98577759997	257.185779100051
61938.5	100	294	8	1	40	6	11	3	0	0	0	stim012_stimuli_original_vehicles_boats_4.png	D	0	0	0	257.385790399974	257.585794000071
62038.5	100	295	8	1	40	7	8	12	0	1	1	stim009_stimuli_original_vehicles_boats_1.png	T	0	0	0	257.78580209997	257.985799000016
62138.5	100	296	8	1	40	8	4	0	0	0	0	stim005_stimuli_original_animals_fish_1.png	A	d	258.37760560005	1	258.18581220007	258.385813400033
62238.5	100	297	8	1	40	9	10	4	0	0	0	stim011_stimuli_original_vehicles_boats_3.png	E	0	0	0	258.585822900059	258.78582650004
62338.5	100	298	8	1	40	10	13	5	1	0	0	stim014_stimuli_original_vehicles_planes_2.png	F	0	0	0	258.985831700033	259.185831699986
62438.5	100	299	8	1	40	11	3	11	0	0	0	stim004_stimuli_original_animals_birds_4.png	R	0	0	0	259.385848500067	259.585843299981
62538.5	100	300	8	1	40	12	13	15	1	0	0	stim014_stimuli_original_vehicles_planes_2.png	Y	0	0	0	259.785855400027	259.985854199971
62638.5	100	301	8	1	40	13	5	1	0	0	0	stim006_stimuli_original_animals_fish_2.png	B	0	0	0	260.185864500003	260.385864799959
62738.5	100	302	8	1	40	14	14	12	0	0	0	stim015_stimuli_original_vehicles_planes_3.png	T	0	0	0	260.585878200014	260.785877099959
62838.5	100	303	8	1	40	15	7	13	0	0	0	stim008_stimuli_original_animals_fish_4.png	U	0	0	0	260.985891900025	261.185888400069
62938.5	100	304	8	1	40	16	1	6	0	0	0	stim002_stimuli_original_animals_birds_2.png	G	0	0	0	261.385896399966	261.585896100034
63038.5	100	305	8	1	40	17	0	8	0	0	0	stim001_stimuli_original_animals_birds_1.png	K	0	0	0	261.785910299979	261.985907100025
63138.5	100	306	8	1	40	18	8	0	0	0	0	stim009_stimuli_original_vehicles_boats_1.png	A	0	0	0	262.18591999996	262.38591870002
63238.5	100	307	8	1	40	19	6	1	0	0	0	stim007_stimuli_original_animals_fish_3.png	B	0	0	0	262.585930000059	262.785928500001
63338.5	100	308	8	1	40	20	13	7	0	0	0	stim014_stimuli_original_vehicles_planes_2.png	J	0	0	0	262.985938200029	263.185939499992
63438.5	100	309	8	1	40	21	12	14	0	0	0	stim013_stimuli_original_vehicles_planes_1.png	V	0	0	0	263.385959899984	263.585949599976
63538.5	100	310	8	1	40	22	1	5	0	0	0	stim002_stimuli_original_animals_birds_2.png	F	0	0	0	263.785963600036	263.985961699975
63638.5	100	311	8	1	40	23	15	13	0	1	0	stim016_stimuli_original_vehicles_planes_4.png	U	0	0	0	264.185974700027	264.385970900068
63738.5	100	312	8	1	40	24	11	3	0	0	0	stim012_stimuli_original_vehicles_boats_4.png	D	0	0	0	264.585983199999	264.785982700065
63838.5	100	313	8	1	40	25	5	13	0	1	1	stim006_stimuli_original_animals_fish_2.png	U	0	0	0	264.98599429999	265.18599300005
63938.5	100	314	8	1	40	26	4	10	0	0	0	stim005_stimuli_original_animals_fish_1.png	Q	0	0	0	265.386005499982	265.586006800062
64038.5	100	315	8	1	40	27	0	4	0	0	0	stim001_stimuli_original_animals_birds_1.png	E	0	0	0	265.786018599989	265.986014500028
64138.5	100	316	8	1	40	28	12	8	1	0	0	stim013_stimuli_original_vehicles_planes_1.png	K	0	0	0	266.186026699957	266.386024800013
64238.5	100	317	8	1	40	29	3	11	0	0	0	stim004_stimuli_original_animals_birds_4.png	R	0	0	0	266.586036900058	266.78603660001
64338.5	100	318	8	1	40	30	12	15	1	0	0	stim013_stimuli_original_vehicles_planes_1.png	Y	0	0	0	266.986047100043	267.186047499999
64438.5	100	319	8	1	40	31	9	9	0	0	0	stim010_stimuli_original_vehicles_boats_2.png	L	0	0	0	267.386058200034	267.586085199961
64538.5	100	320	8	1	40	32	10	2	0	0	0	stim011_stimuli_original_vehicles_boats_3.png	C	0	0	0	267.786069000023	267.986066899961
64638.5	100	321	8	1	40	33	14	13	0	0	0	stim015_stimuli_original_vehicles_planes_3.png	U	0	0	0	268.186079400009	268.386078699958
64738.5	100	322	8	1	40	34	2	12	0	0	0	stim003_stimuli_original_animals_birds_3.png	T	0	0	0	268.586090500001	268.786091099959
64838.5	100	323	8	1	40	35	7	6	0	0	0	stim008_stimuli_original_animals_fish_4.png	G	0	0	0	268.986100799986	269.186101800064
65588.5	100	324	9	0	21	0	9	0	0	0	0	stim010_stimuli_original_vehicles_boats_2.png	A	0	0	0	271.986215000041	272.186228099978
65688.5	100	325	9	0	21	1	14	8	0	0	0	stim015_stimuli_original_vehicles_planes_3.png	K	0	0	0	272.386187499971	272.58622190007
65788.5	100	326	9	0	21	2	15	11	0	0	0	stim016_stimuli_original_vehicles_planes_4.png	R	0	0	0	272.786225100048	272.986227700021
65888.5	100	327	9	0	21	3	12	5	0	0	0	stim013_stimuli_original_vehicles_planes_1.png	F	0	0	0	273.186240100069	273.386240300024
65988.5	100	328	9	0	21	4	2	4	0	0	0	stim003_stimuli_original_animals_birds_3.png	E	0	0	0	273.58625589998	273.78625460004
66088.5	100	329	9	0	21	5	14	9	1	0	0	stim015_stimuli_original_vehicles_planes_3.png	L	0	0	0	273.986269799992	274.186262300005
66188.5	100	330	9	0	21	6	6	6	0	0	0	stim007_stimuli_original_animals_fish_3.png	G	0	0	0	274.38624640007	274.586267600069
66288.5	100	331	9	0	21	7	14	7	1	0	1	stim015_stimuli_original_vehicles_planes_3.png	J	0	0	0	274.786279299995	274.986270900001
66388.5	100	332	9	0	21	8	13	3	0	0	0	stim014_stimuli_original_vehicles_planes_2.png	D	0	0	0	275.18629750004	275.386299200007
66488.5	100	333	9	0	21	9	3	2	0	0	0	stim004_stimuli_original_animals_birds_4.png	C	0	0	0	275.586308600032	275.786310299998
66588.75	100	334	9	0	21	10	1	11	0	1	0	stim002_stimuli_original_animals_birds_2.png	R	0	0	0	275.98632060003	276.186314300052
66688.75	100	335	9	0	21	11	0	12	0	0	0	stim001_stimuli_original_animals_birds_1.png	T	0	0	0	276.386331100017	276.586329100071
66788.75	100	336	9	0	21	12	5	11	0	1	0	stim006_stimuli_original_animals_fish_2.png	R	0	0	0	276.7863411	276.986314299982
66888.75	100	337	9	0	21	13	10	14	0	0	0	stim011_stimuli_original_vehicles_boats_3.png	V	0	0	0	277.186347999959	277.386350900051
66988.75	100	338	9	0	21	14	8	10	0	0	0	stim009_stimuli_original_vehicles_boats_1.png	Q	0	0	0	277.586358500062	277.786361400038
67088.75	100	339	9	0	21	15	7	13	0	0	0	stim008_stimuli_original_animals_fish_4.png	U	d	278.178172399988	0	277.98637519998	278.186367199989
67188.75	100	340	9	0	21	16	11	1	0	0	0	stim012_stimuli_original_vehicles_boats_4.png	B	0	0	0	278.386379000032	278.586377699976
67288.75	100	341	9	0	21	17	4	15	0	0	0	stim005_stimuli_original_animals_fish_1.png	Y	0	0	0	278.786388900015	278.986392899998
67388.75	100	342	9	0	21	18	15	4	0	0	0	stim016_stimuli_original_vehicles_planes_4.png	E	0	0	0	279.186410999973	279.386407000013
67488.75	100	343	9	0	21	19	1	11	0	0	0	stim002_stimuli_original_animals_birds_2.png	R	0	0	0	279.586417100043	279.786416499992
67588.75	100	344	9	0	21	20	13	7	0	0	0	stim014_stimuli_original_vehicles_planes_2.png	J	0	0	0	279.986431100057	280.186428599991
67688.75	100	345	9	0	21	21	10	8	0	0	0	stim011_stimuli_original_vehicles_boats_3.png	K	0	0	0	280.386457300046	280.586439899984
67788.75	100	346	9	0	21	22	14	10	0	0	0	stim015_stimuli_original_vehicles_planes_3.png	Q	0	0	0	280.786450400017	280.98644160002
67888.75	100	347	9	0	21	23	11	5	1	0	0	stim012_stimuli_original_vehicles_boats_4.png	F	0	0	0	281.186455699964	281.386454200023
67988.75	100	348	9	0	21	24	12	0	0	0	0	stim013_stimuli_original_vehicles_planes_1.png	A	0	0	0	281.586450300063	281.786454000045
68088.75	100	349	9	0	21	25	11	1	1	0	1	stim012_stimuli_original_vehicles_boats_4.png	B	0	0	0	281.986451799981	282.186449200031
68188.75	100	350	9	0	21	26	2	3	0	0	0	stim003_stimuli_original_animals_birds_3.png	D	0	0	0	282.386462899973	282.5864879
68288.75	100	351	9	0	21	27	3	13	0	0	0	stim004_stimuli_original_animals_birds_4.png	U	0	0	0	282.786498800036	282.986495299963
68388.75	100	352	9	0	21	28	7	14	0	1	0	stim008_stimuli_original_animals_fish_4.png	V	0	0	0	283.1865062	283.386504600057
68488.75	100	353	9	0	21	29	6	6	0	0	0	stim007_stimuli_original_animals_fish_3.png	G	0	0	0	283.586516299983	283.786518100067
68588.75	100	354	9	0	21	30	9	14	0	1	0	stim010_stimuli_original_vehicles_boats_2.png	V	0	0	0	283.986529499991	284.18652550003
68688.75	100	355	9	0	21	31	4	2	0	0	0	stim005_stimuli_original_animals_fish_1.png	C	0	0	0	284.386538699968	284.586536100018
68788.75	100	356	9	0	21	32	5	12	0	0	0	stim006_stimuli_original_animals_fish_2.png	T	0	0	0	284.786546600051	284.986548700021
68888.75	100	357	9	0	21	33	11	15	0	0	0	stim012_stimuli_original_vehicles_boats_4.png	Y	0	0	0	285.186556300032	285.386557199992
68988.75	100	358	9	0	21	34	8	14	0	0	0	stim009_stimuli_original_vehicles_boats_1.png	V	0	0	0	285.586571100052	285.786567099974
69088.75	100	359	9	0	21	35	0	9	0	0	0	stim001_stimuli_original_animals_birds_1.png	L	0	0	0	285.986555100069	286.186580199981
69617.75	100	360	10	1	5	0	11	6	0	0	0	stim012_stimuli_original_vehicles_boats_4.png	G	0	0	0	288.103308500024	288.303310699994
69717.75	100	361	10	1	5	1	5	0	0	0	0	stim006_stimuli_original_animals_fish_2.png	A	0	0	0	288.503328299965	288.703323299997
69817.75	100	362	10	1	5	2	0	3	0	0	0	stim001_stimuli_original_animals_birds_1.png	D	0	0	0	288.903334000031	289.103331799968
69917.75	100	363	10	1	5	3	9	8	0	0	0	stim010_stimuli_original_vehicles_boats_2.png	K	0	0	0	289.303344200016	289.503341300064
70017.75	100	364	10	1	5	4	4	7	0	0	0	stim005_stimuli_original_animals_fish_1.png	J	0	0	0	289.703336199978	289.903352900059
70118	100	365	10	1	5	5	1	11	1	1	0	stim002_stimuli_original_animals_birds_2.png	R	0	0	0	290.103373500053	290.303363400046
70218	100	366	10	1	5	6	8	15	0	0	0	stim009_stimuli_original_vehicles_boats_1.png	Y	0	0	0	290.503375699976	290.703358000028
70318	100	367	10	1	5	7	1	11	1	1	1	stim002_stimuli_original_animals_birds_2.png	R	0	0	0	290.903385000071	291.103384100017
70418	100	368	10	1	5	8	10	4	0	0	0	stim011_stimuli_original_vehicles_boats_3.png	E	d	291.49520200002	1	291.303397300071	291.503395900014
70518	100	369	10	1	5	9	12	1	0	0	0	stim013_stimuli_original_vehicles_planes_1.png	B	0	0	0	291.703407800058	291.903405199992
70618	100	370	10	1	5	10	13	11	0	0	0	stim014_stimuli_original_vehicles_planes_2.png	R	0	0	0	292.103419500054	292.303388
70718	100	371	10	1	5	11	2	14	0	0	0	stim003_stimuli_original_animals_birds_3.png	V	0	0	0	292.503426600015	292.703432900016
70818	100	372	10	1	5	12	15	12	0	0	0	stim016_stimuli_original_vehicles_planes_4.png	T	0	0	0	292.903441200033	293.103443800006
70918	100	373	10	1	5	13	14	2	0	0	0	stim015_stimuli_original_vehicles_planes_3.png	C	0	0	0	293.303454500041	293.50344650005
71018	100	374	10	1	5	14	6	10	0	0	0	stim007_stimuli_original_animals_fish_3.png	Q	0	0	0	293.703453700058	293.90345350001
71118	100	375	10	1	5	15	7	9	0	0	0	stim008_stimuli_original_animals_fish_4.png	L	0	0	0	294.103469299967	294.303471100051
71218	100	376	10	1	5	16	3	13	0	0	0	stim004_stimuli_original_animals_birds_4.png	U	0	0	0	294.50348710001	294.703481200035
71318	100	377	10	1	5	17	1	5	0	0	0	stim002_stimuli_original_animals_birds_2.png	F	0	0	0	294.903494499973	295.103493200033
71418	100	378	10	1	5	18	5	1	0	0	0	stim006_stimuli_original_animals_fish_2.png	B	0	0	0	295.303504300071	295.503492200049
71518	100	379	10	1	5	19	13	3	0	0	0	stim014_stimuli_original_vehicles_planes_2.png	D	0	0	0	295.703513000044	295.903512599994
71618	100	380	10	1	5	20	9	7	0	0	0	stim010_stimuli_original_vehicles_boats_2.png	J	0	0	0	296.103524400038	296.303528000019
71718	100	381	10	1	5	21	10	6	0	0	0	stim011_stimuli_original_vehicles_boats_3.png	G	0	0	0	296.503538000048	296.703539400012
71818	100	382	10	1	5	22	2	14	0	0	0	stim003_stimuli_original_animals_birds_3.png	V	0	0	0	296.903547000024	297.103547199978
71918	100	383	10	1	5	23	12	15	0	0	0	stim013_stimuli_original_vehicles_planes_1.png	Y	0	0	0	297.303554699989	297.503543999977
72018	100	384	10	1	5	24	14	2	0	0	0	stim015_stimuli_original_vehicles_planes_3.png	C	0	0	0	297.703573000035	297.903566900059
72118	100	385	10	1	5	25	11	13	0	0	0	stim012_stimuli_original_vehicles_boats_4.png	U	0	0	0	298.103584000026	298.303580100066
72218	100	386	10	1	5	26	1	12	0	0	0	stim002_stimuli_original_animals_birds_2.png	T	0	0	0	298.503589199972	298.703590300051
72318	100	387	10	1	5	27	4	10	0	0	0	stim005_stimuli_original_animals_fish_1.png	Q	0	0	0	298.903599699959	299.103600700037
72418	100	388	10	1	5	28	11	1	1	1	0	stim012_stimuli_original_vehicles_boats_4.png	B	0	0	0	299.303615899989	299.503608400002
72518	100	389	10	1	5	29	15	8	0	0	0	stim016_stimuli_original_vehicles_planes_4.png	K	0	0	0	299.703598399996	299.903620199999
72618	100	390	10	1	5	30	11	1	1	1	1	stim012_stimuli_original_vehicles_boats_4.png	B	0	0	0	300.103635000065	300.303630199982
72718	100	391	10	1	5	31	7	4	0	0	0	stim008_stimuli_original_animals_fish_4.png	E	0	0	0	300.503645400051	300.703632400022
72818	100	392	10	1	5	32	8	9	0	0	0	stim009_stimuli_original_vehicles_boats_1.png	L	d	301.095451900037	1	300.903655300033	301.103646000032
72918	100	393	10	1	5	33	3	0	0	0	0	stim004_stimuli_original_animals_birds_4.png	A	0	0	0	301.303664300009	301.503663599957
73018	100	394	10	1	5	34	0	5	0	0	0	stim001_stimuli_original_animals_birds_1.png	F	0	0	0	301.703673899989	301.903675999958
73118	100	395	10	1	5	35	6	11	0	0	0	stim007_stimuli_original_animals_fish_3.png	R	d	302.096297499957	1	302.103684199974	302.303674199968
74155.5	100	396	11	0	7	0	2	6	0	0	0	stim003_stimuli_original_animals_birds_3.png	G	0	0	0	306.253794600023	306.453793399967
74255.5	100	397	11	0	7	1	6	9	0	0	0	stim007_stimuli_original_animals_fish_3.png	L	0	0	0	306.6538038	306.853803700069
74355.5	100	398	11	0	7	2	0	15	0	0	0	stim001_stimuli_original_animals_birds_1.png	Y	0	0	0	307.053814999992	307.253799600061
74455.5	100	399	11	0	7	3	15	10	0	0	0	stim016_stimuli_original_vehicles_planes_4.png	Q	0	0	0	307.45382299996	307.65380770003
74555.5	100	400	11	0	7	4	14	2	1	0	0	stim015_stimuli_original_vehicles_planes_3.png	C	0	0	0	307.853826700011	308.053831800004
74655.5	100	401	11	0	7	5	3	1	0	0	0	stim004_stimuli_original_animals_birds_4.png	B	0	0	0	308.253845600062	308.453845800017
74755.5	100	402	11	0	7	6	14	9	1	1	1	stim015_stimuli_original_vehicles_planes_3.png	L	0	0	0	308.653853800031	308.853854099987
74855.5	100	403	11	0	7	7	7	12	0	0	0	stim008_stimuli_original_animals_fish_4.png	T	d	309.245656499988	1	309.053865100024	309.253869100008
74955.5	100	404	11	0	7	8	10	9	0	1	0	stim011_stimuli_original_vehicles_boats_3.png	L	0	0	0	309.453880100045	309.653882800019
75055.5	100	405	11	0	7	9	8	0	0	0	0	stim009_stimuli_original_vehicles_boats_1.png	A	0	0	0	309.853898899979	310.053885700065
75155.5	100	406	11	0	7	10	14	3	0	0	0	stim015_stimuli_original_vehicles_planes_3.png	D	0	0	0	310.253901800024	310.453895400045
75255.5	100	407	11	0	7	11	5	13	0	0	0	stim006_stimuli_original_animals_fish_2.png	U	0	0	0	310.653911000001	310.853908800054
75355.5	100	408	11	0	7	12	9	8	0	0	0	stim010_stimuli_original_vehicles_boats_2.png	K	0	0	0	311.053904999979	311.253922500066
75455.5	100	409	11	0	7	13	11	4	0	0	0	stim012_stimuli_original_vehicles_boats_4.png	E	0	0	0	311.453930499963	311.653930500033
75555.5	100	410	11	0	7	14	13	7	0	0	0	stim014_stimuli_original_vehicles_planes_2.png	J	0	0	0	311.85394229996	312.053933599964
75655.5	100	411	11	0	7	15	4	14	0	0	0	stim005_stimuli_original_animals_fish_1.png	V	0	0	0	312.253952800063	312.453958600061
75755.5	100	412	11	0	7	16	12	11	0	0	0	stim013_stimuli_original_vehicles_planes_1.png	R	0	0	0	312.653947300045	312.853961899993
75855.5	100	413	11	0	7	17	1	5	0	0	0	stim002_stimuli_original_animals_birds_2.png	F	0	0	0	313.053973800037	313.253973599989
75955.5	100	414	11	0	7	18	5	1	0	0	0	stim006_stimuli_original_animals_fish_2.png	B	0	0	0	313.453986900044	313.653987500002
76055.5	100	415	11	0	7	19	11	12	0	0	0	stim012_stimuli_original_vehicles_boats_4.png	T	0	0	0	313.853998200037	314.054000300006
76155.5	100	416	11	0	7	20	14	4	0	0	0	stim015_stimuli_original_vehicles_planes_3.png	E	0	0	0	314.254006500007	314.454004000057
76255.5	100	417	11	0	7	21	7	13	0	0	0	stim008_stimuli_original_animals_fish_4.png	U	0	0	0	314.653994300053	314.854016400059
76355.5	100	418	11	0	7	22	4	11	0	0	0	stim005_stimuli_original_animals_fish_1.png	R	0	0	0	315.054041999974	315.254010700039
76455.5	100	419	11	0	7	23	8	9	0	0	0	stim009_stimuli_original_vehicles_boats_1.png	L	0	0	0	315.454038499971	315.654042600072
76555.5	100	420	11	0	7	24	13	5	0	0	0	stim014_stimuli_original_vehicles_planes_2.png	F	0	0	0	315.854050199967	316.05405060004
76655.5	100	421	11	0	7	25	3	14	0	0	0	stim004_stimuli_original_animals_birds_4.png	V	0	0	0	316.254061099957	316.454058400006
76755.5	100	422	11	0	7	26	0	8	0	0	0	stim001_stimuli_original_animals_birds_1.png	K	0	0	0	316.65407290007	316.854060500045
76855.5	100	423	11	0	7	27	9	10	1	0	0	stim010_stimuli_original_vehicles_boats_2.png	Q	0	0	0	317.054079800029	317.254063799977
76955.5	100	424	11	0	7	28	12	7	0	0	0	stim013_stimuli_original_vehicles_planes_1.png	J	0	0	0	317.454093100037	317.654092899989
77055.5	100	425	11	0	7	29	9	14	1	1	1	stim010_stimuli_original_vehicles_boats_2.png	V	0	0	0	317.85409649997	318.054100000067
77155.5	100	426	11	0	7	30	1	3	0	0	0	stim002_stimuli_original_animals_birds_2.png	D	0	0	0	318.254117100034	318.454111700063
77255.5	100	427	11	0	7	31	2	14	0	1	0	stim003_stimuli_original_animals_birds_3.png	V	0	0	0	318.654122999986	318.85412709997
77355.5	100	428	11	0	7	32	10	15	0	0	0	stim011_stimuli_original_vehicles_boats_3.png	Y	0	0	0	319.054131699959	319.254130400019
77455.5	100	429	11	0	7	33	15	0	0	0	0	stim016_stimuli_original_vehicles_planes_4.png	A	0	0	0	319.454139800044	319.654142200015
77555.5	100	430	11	0	7	34	9	6	0	0	0	stim010_stimuli_original_vehicles_boats_2.png	G	0	0	0	319.854154000059	320.054153100005
77655.5	100	431	11	0	7	35	6	2	0	0	0	stim007_stimuli_original_animals_fish_3.png	C	0	0	0	320.254162200028	320.454165500007
79039	100	432	12	1	43	0	13	4	0	0	0	stim014_stimuli_original_vehicles_planes_2.png	E	0	0	0	325.787630100036	325.987621200038
79139	100	433	12	1	43	1	8	13	0	0	0	stim009_stimuli_original_vehicles_boats_1.png	U	0	0	0	326.187631300068	326.387631200021
79239	100	434	12	1	43	2	6	1	0	0	0	stim007_stimuli_original_animals_fish_3.png	B	0	0	0	326.587643200066	326.787680899957
79339	100	435	12	1	43	3	12	10	0	0	0	stim013_stimuli_original_vehicles_planes_1.png	Q	0	0	0	326.987654100056	327.187654000008
79439	100	436	12	1	43	4	15	9	1	0	0	stim016_stimuli_original_vehicles_planes_4.png	L	0	0	0	327.387681100052	327.587665600004
79539	100	437	12	1	43	5	9	2	0	0	0	stim010_stimuli_original_vehicles_boats_2.png	C	0	0	0	327.787675400032	327.987674599979
79639	100	438	12	1	43	6	15	12	1	0	0	stim016_stimuli_original_vehicles_planes_4.png	T	0	0	0	328.187690100051	328.387688199989
79739	100	439	12	1	43	7	3	0	0	0	0	stim004_stimuli_original_animals_birds_4.png	A	0	0	0	328.587697600015	328.787696199957
79839	100	440	12	1	43	8	7	7	0	0	0	stim008_stimuli_original_animals_fish_4.png	J	0	0	0	328.987707599998	329.187708499958
79939	100	441	12	1	43	9	11	1	0	1	0	stim012_stimuli_original_vehicles_boats_4.png	B	0	0	0	329.387746699969	329.587716400041
80039	100	442	12	1	43	10	0	3	0	0	0	stim001_stimuli_original_animals_birds_1.png	D	0	0	0	329.787728899973	329.987743100035
80139	100	443	12	1	43	11	1	1	0	1	1	stim002_stimuli_original_animals_birds_2.png	B	0	0	0	330.187740499969	330.387741200044
80239	100	444	12	1	43	12	15	11	0	0	0	stim016_stimuli_original_vehicles_planes_4.png	R	0	0	0	330.587751499959	330.787750700023
80339	100	445	12	1	43	13	14	5	0	0	0	stim015_stimuli_original_vehicles_planes_3.png	F	d	330.980333099957	1	330.987762800069	331.187760500005
80439	100	446	12	1	43	14	5	15	0	0	0	stim006_stimuli_original_animals_fish_2.png	Y	0	0	0	331.387773600058	331.587769799982
80539	100	447	12	1	43	15	2	6	0	0	0	stim003_stimuli_original_animals_birds_3.png	G	0	0	0	331.787781700026	331.987796099973
80639	100	448	12	1	43	16	10	8	0	0	0	stim011_stimuli_original_vehicles_boats_3.png	K	0	0	0	332.187793900026	332.38779259997
80739	100	449	12	1	43	17	4	14	0	0	0	stim005_stimuli_original_animals_fish_1.png	V	0	0	0	332.587818400003	332.787804599968
80839	100	450	12	1	43	18	14	4	0	0	0	stim015_stimuli_original_vehicles_planes_3.png	E	0	0	0	332.987814799999	333.187817699974
80939	100	451	12	1	43	19	8	10	0	0	0	stim009_stimuli_original_vehicles_boats_1.png	Q	0	0	0	333.387828000006	333.587836900027
81039	100	452	12	1	43	20	6	2	0	0	0	stim007_stimuli_original_animals_fish_3.png	C	0	0	0	333.787846800056	333.98784690001
81139	100	453	12	1	43	21	15	5	0	0	0	stim016_stimuli_original_vehicles_planes_4.png	F	0	0	0	334.187898200005	334.387858700007
81239	100	454	12	1	43	22	5	14	0	0	0	stim006_stimuli_original_animals_fish_2.png	V	0	0	0	334.587881300016	334.787890700041
81339	100	455	12	1	43	23	11	15	0	0	0	stim012_stimuli_original_vehicles_boats_4.png	Y	0	0	0	334.98788010003	335.187879999983
81439	100	456	12	1	43	24	1	1	1	0	0	stim002_stimuli_original_animals_birds_2.png	B	0	0	0	335.38789490005	335.587913100026
81539	100	457	12	1	43	25	3	0	0	0	0	stim004_stimuli_original_animals_birds_4.png	A	0	0	0	335.787900900003	335.987899400061
81639	100	458	12	1	43	26	1	11	1	0	0	stim002_stimuli_original_animals_birds_2.png	R	0	0	0	336.187912099995	336.387911800062
81739	100	459	12	1	43	27	7	7	0	0	0	stim008_stimuli_original_animals_fish_4.png	J	0	0	0	336.587921699975	336.787950700033
81839	100	460	12	1	43	28	0	3	0	0	0	stim001_stimuli_original_animals_birds_1.png	D	0	0	0	336.987934199977	337.187924399972
81939	100	461	12	1	43	29	12	15	0	1	0	stim013_stimuli_original_vehicles_planes_1.png	Y	0	0	0	337.3879495	337.587931700051
82039	100	462	12	1	43	30	2	9	0	0	0	stim003_stimuli_original_animals_birds_3.png	L	0	0	0	337.787945899996	337.987954500015
82139	100	463	12	1	43	31	9	15	0	1	1	stim010_stimuli_original_vehicles_boats_2.png	Y	0	0	0	338.187954599969	338.387955100043
82239	100	464	12	1	43	32	10	12	0	0	0	stim011_stimuli_original_vehicles_boats_3.png	T	d	338.596055499977	1	338.587966799969	338.78796570003
82339	100	465	12	1	43	33	1	6	0	0	0	stim002_stimuli_original_animals_birds_2.png	G	0	0	0	338.987975900061	339.187976800022
82439	100	466	12	1	43	34	13	8	0	0	0	stim014_stimuli_original_vehicles_planes_2.png	K	0	0	0	339.388016800047	339.587985699996
82539	100	467	12	1	43	35	4	13	0	0	0	stim005_stimuli_original_animals_fish_1.png	U	0	0	0	339.788004499977	339.988015300012
83268.25	100	468	13	0	41	0	6	9	0	0	0	stim007_stimuli_original_animals_fish_3.png	L	0	0	0	342.704755299957	342.904751900001
83368.25	100	469	13	0	41	1	8	12	0	0	0	stim009_stimuli_original_vehicles_boats_1.png	T	0	0	0	343.104766100063	343.304766500019
83468.25	100	470	13	0	41	2	10	2	0	0	0	stim011_stimuli_original_vehicles_boats_3.png	C	0	0	0	343.504777700058	343.704777800012
83568.25	100	471	13	0	41	3	4	14	0	0	0	stim005_stimuli_original_animals_fish_1.png	V	0	0	0	343.904786000028	344.104787199991
83668.25	100	472	13	0	41	4	14	3	0	0	0	stim015_stimuli_original_vehicles_planes_3.png	D	0	0	0	344.304796000011	344.504795599962
83768.25	100	473	13	0	41	5	10	4	1	0	0	stim011_stimuli_original_vehicles_boats_3.png	E	0	0	0	344.704807400005	344.904809099971
83868.25	100	474	13	0	41	6	7	2	0	1	0	stim008_stimuli_original_animals_fish_4.png	C	0	0	0	345.104817399988	345.30481979996
83968.25	100	475	13	0	41	7	10	11	1	0	1	stim011_stimuli_original_vehicles_boats_3.png	R	0	0	0	345.504829999991	345.704830500064
84068.25	100	476	13	0	41	8	2	2	0	1	0	stim003_stimuli_original_animals_birds_3.png	C	d	346.096637699986	1	345.904839099967	346.104839400039
84168.25	100	477	13	0	41	9	0	7	0	0	0	stim001_stimuli_original_animals_birds_1.png	J	0	0	0	346.304874800029	346.504850700032
84268.25	100	478	13	0	41	10	1	5	0	0	0	stim002_stimuli_original_animals_birds_2.png	F	0	0	0	346.704850299982	346.904861100018
84368.25	100	479	13	0	41	11	5	10	0	0	0	stim006_stimuli_original_animals_fish_2.png	Q	0	0	0	347.10487010004	347.304871500004
84468.25	100	480	13	0	41	12	3	15	0	0	0	stim004_stimuli_original_animals_birds_4.png	Y	0	0	0	347.504882400041	347.704881199985
84568.25	100	481	13	0	41	13	13	13	0	0	0	stim014_stimuli_original_vehicles_planes_2.png	U	d	347.897492400021	0	347.90489720006	348.104890099959
84668.25	100	482	13	0	41	14	11	1	0	0	0	stim012_stimuli_original_vehicles_boats_4.png	B	0	0	0	348.304903900018	348.50490499998
84768.25	100	483	13	0	41	15	9	0	0	0	0	stim010_stimuli_original_vehicles_boats_2.png	A	0	0	0	348.704916900024	348.904913100065
84868.25	100	484	13	0	41	16	12	6	0	0	0	stim013_stimuli_original_vehicles_planes_1.png	G	0	0	0	349.104927600012	349.304924900061
84968.25	100	485	13	0	41	17	15	8	0	0	0	stim016_stimuli_original_vehicles_planes_4.png	K	0	0	0	349.504937199992	349.704936800059
85068.25	100	486	13	0	41	18	8	15	0	0	0	stim009_stimuli_original_vehicles_boats_1.png	Y	0	0	0	349.90494779998	350.104950200068
85168.25	100	487	13	0	41	19	6	12	0	0	0	stim007_stimuli_original_animals_fish_3.png	T	0	0	0	350.304964200011	350.504956900026
85268.25	100	488	13	0	41	20	0	9	0	0	0	stim001_stimuli_original_animals_birds_1.png	L	0	0	0	350.704989999998	350.90496840002
85368.25	100	489	13	0	41	21	1	11	0	0	0	stim002_stimuli_original_animals_birds_2.png	R	0	0	0	351.104979400057	351.304978500004
85468.25	100	490	13	0	41	22	13	13	0	0	0	stim014_stimuli_original_vehicles_planes_2.png	U	0	0	0	351.505015900009	351.704999700072
85568.25	100	491	13	0	41	23	15	3	0	0	0	stim016_stimuli_original_vehicles_planes_4.png	D	0	0	0	351.905023199972	352.105019300012
85668.25	100	492	13	0	41	24	10	5	0	0	0	stim011_stimuli_original_vehicles_boats_3.png	F	0	0	0	352.305031500058	352.505030700006
85768.25	100	493	13	0	41	25	5	1	0	0	0	stim006_stimuli_original_animals_fish_2.png	B	0	0	0	352.70504879998	352.905042800005
85868.25	100	494	13	0	41	26	7	0	0	0	0	stim008_stimuli_original_animals_fish_4.png	A	0	0	0	353.105053000036	353.30505179998
85968.25	100	495	13	0	41	27	2	2	1	0	0	stim003_stimuli_original_animals_birds_3.png	C	0	0	0	353.505062800017	353.705057400046
86068.25	100	496	13	0	41	28	11	10	0	1	0	stim012_stimuli_original_vehicles_boats_4.png	Q	0	0	0	353.905059500015	354.105053400039
86168.25	100	497	13	0	41	29	2	7	1	0	1	stim003_stimuli_original_animals_birds_3.png	J	0	0	0	354.305088800029	354.505067600054
86268.25	100	498	13	0	41	30	4	10	0	1	0	stim005_stimuli_original_animals_fish_1.png	Q	0	0	0	354.70507669996	354.905079000047
86368.25	100	499	13	0	41	31	3	14	0	0	0	stim004_stimuli_original_animals_birds_4.png	V	0	0	0	355.10509149998	355.305085600005
86468.25	100	500	13	0	41	32	14	4	0	0	0	stim015_stimuli_original_vehicles_planes_3.png	E	0	0	0	355.505097900052	355.705087300041
86568.25	100	501	13	0	41	33	2	10	0	0	0	stim003_stimuli_original_animals_birds_3.png	Q	0	0	0	355.905098799965	356.105094900005
86668.25	100	502	13	0	41	34	12	8	0	0	0	stim013_stimuli_original_vehicles_planes_1.png	K	0	0	0	356.305120400037	356.505107900011
86768.25	100	503	13	0	41	35	9	6	0	0	0	stim010_stimuli_original_vehicles_boats_2.png	G	0	0	0	356.705117500038	356.905119600007
119406.5	100	504	14	1	27	0	11	3	0	0	0	stim012_stimuli_original_vehicles_boats_4.png	D	0	0	0	487.258606999996	487.458604600048
119506.5	100	505	14	1	27	1	12	14	0	0	0	stim013_stimuli_original_vehicles_planes_1.png	V	0	0	0	487.658614699962	487.858615900041
119606.5	100	506	14	1	27	2	10	8	0	0	0	stim011_stimuli_original_vehicles_boats_3.png	K	0	0	0	488.058648500009	488.258627300034
119706.5	100	507	14	1	27	3	7	6	0	0	0	stim008_stimuli_original_animals_fish_4.png	G	0	0	0	488.458641699981	488.658638400026
119806.5	100	508	14	1	27	4	15	2	0	0	0	stim016_stimuli_original_vehicles_planes_4.png	C	0	0	0	488.858650200069	489.058646199992
119906.5	100	509	14	1	27	5	8	11	0	0	0	stim009_stimuli_original_vehicles_boats_1.png	R	0	0	0	489.258656300022	489.458658599993
120006.5	100	510	14	1	27	6	3	13	0	0	0	stim004_stimuli_original_animals_birds_4.png	U	0	0	0	489.658669000026	489.85866909998
120106.5	100	511	14	1	27	7	9	12	0	0	0	stim010_stimuli_original_vehicles_boats_2.png	T	0	0	0	490.058677399997	490.258680499974
120206.5	100	512	14	1	27	8	5	15	0	0	0	stim006_stimuli_original_animals_fish_2.png	Y	0	0	0	490.458690900006	490.658688200056
120306.5	100	513	14	1	27	9	15	1	1	0	0	stim016_stimuli_original_vehicles_planes_4.png	B	0	0	0	490.858701299992	491.05869970005
120406.5	100	514	14	1	27	10	2	0	0	0	0	stim003_stimuli_original_animals_birds_3.png	A	0	0	0	491.258709599962	491.458709900035
120506.5	100	515	14	1	27	11	15	4	1	0	0	stim016_stimuli_original_vehicles_planes_4.png	E	0	0	0	491.658721299958	491.858721900033
120606.5	100	516	14	1	27	12	14	12	0	1	0	stim015_stimuli_original_vehicles_planes_3.png	T	0	0	0	492.058731800062	492.258730900008
120706.5	100	517	14	1	27	13	13	9	0	0	0	stim014_stimuli_original_vehicles_planes_2.png	L	0	0	0	492.458742700052	492.658741599997
120806.5	100	518	14	1	27	14	4	12	0	1	1	stim005_stimuli_original_animals_fish_1.png	T	0	0	0	492.858754300047	493.058754700003
120906.5	100	519	14	1	27	15	1	10	0	0	0	stim002_stimuli_original_animals_birds_2.png	Q	d	493.450556900003	1	493.258764600032	493.458762799972
121006.5	100	520	14	1	27	16	6	5	0	0	0	stim007_stimuli_original_animals_fish_3.png	F	0	0	0	493.658776300028	493.858774499968
121106.5	100	521	14	1	27	17	0	7	0	0	0	stim001_stimuli_original_animals_birds_1.png	J	0	0	0	494.058783999993	494.258786099963
121206.5	100	522	14	1	27	18	7	0	0	0	0	stim008_stimuli_original_animals_fish_4.png	A	0	0	0	494.458796199993	494.658797799959
121306.5	100	523	14	1	27	19	5	6	0	0	0	stim006_stimuli_original_animals_fish_2.png	G	0	0	0	494.858808199991	495.058806600049
121406.5	100	524	14	1	27	20	10	1	0	0	0	stim011_stimuli_original_vehicles_boats_3.png	B	0	0	0	495.258818499977	495.458831900032
121506.5	100	525	14	1	27	21	12	4	1	0	0	stim013_stimuli_original_vehicles_planes_1.png	E	0	0	0	495.658826300059	495.858828300028
121606.5	100	526	14	1	27	22	9	13	0	0	0	stim010_stimuli_original_vehicles_boats_2.png	U	0	0	0	496.058855100069	496.258837600006
121706.5	100	527	14	1	27	23	12	14	1	0	0	stim013_stimuli_original_vehicles_planes_1.png	V	0	0	0	496.458850700059	496.658847999992
121806.5	100	528	14	1	27	24	4	15	0	1	0	stim005_stimuli_original_animals_fish_1.png	Y	0	0	0	496.858860100037	497.058862100006
121906.5	100	529	14	1	27	25	0	2	0	0	0	stim001_stimuli_original_animals_birds_1.png	C	0	0	0	497.258871700033	497.458870399976
122006.5	100	530	14	1	27	26	1	15	0	1	1	stim002_stimuli_original_animals_birds_2.png	Y	0	0	0	497.658881900017	497.858880999964
122106.5	100	531	14	1	27	27	15	5	0	0	0	stim016_stimuli_original_vehicles_planes_4.png	F	0	0	0	498.058892000001	498.258891600068
122206.5	100	532	14	1	27	28	12	9	0	0	0	stim013_stimuli_original_vehicles_planes_1.png	L	0	0	0	498.458903899998	498.658905399963
122306.5	100	533	14	1	27	29	13	3	0	0	0	stim014_stimuli_original_vehicles_planes_2.png	D	0	0	0	498.858925000066	499.058929200051
122406.5	100	534	14	1	27	30	11	8	0	0	0	stim012_stimuli_original_vehicles_boats_4.png	K	0	0	0	499.258935700054	499.458937500021
122506.5	100	535	14	1	27	31	2	15	0	0	0	stim003_stimuli_original_animals_birds_3.png	Y	0	0	0	499.658944400027	499.858944999985
122606.5	100	536	14	1	27	32	6	7	0	0	0	stim007_stimuli_original_animals_fish_3.png	J	0	0	0	500.058977700071	500.258954399964
122706.5	100	537	14	1	27	33	8	10	0	0	0	stim009_stimuli_original_vehicles_boats_1.png	Q	0	0	0	500.45896790002	500.658966599964
122806.5	100	538	14	1	27	34	14	12	0	0	0	stim015_stimuli_original_vehicles_planes_3.png	T	0	0	0	500.858978400007	501.058981199982
122906.75	100	539	14	1	27	35	3	11	0	0	0	stim004_stimuli_original_animals_birds_4.png	R	0	0	0	501.258988099988	501.458987600054
123494.25	100	540	15	0	32	0	1	5	0	0	0	stim002_stimuli_original_animals_birds_2.png	F	0	0	0	503.609042000026	503.809063600027
123594.25	100	541	15	0	32	1	9	0	0	0	0	stim010_stimuli_original_vehicles_boats_2.png	A	0	0	0	504.00904559996	504.209073300008
123694.25	100	542	15	0	32	2	7	6	0	0	0	stim008_stimuli_original_animals_fish_4.png	G	0	0	0	504.409111200017	504.609083399992
123794.25	100	543	15	0	32	3	0	15	0	0	0	stim001_stimuli_original_animals_birds_1.png	Y	0	0	0	504.809098100057	505.009092899971
123894.25	100	544	15	0	32	4	15	11	0	0	0	stim016_stimuli_original_vehicles_planes_4.png	R	0	0	0	505.209106400027	505.409105999977
123994.25	100	545	15	0	32	5	6	7	0	0	0	stim007_stimuli_original_animals_fish_3.png	J	0	0	0	505.609114999999	505.809117899975
124094.25	100	546	15	0	32	6	2	13	0	0	0	stim003_stimuli_original_animals_birds_3.png	U	0	0	0	506.009126699995	506.209127200069
124194.25	100	547	15	0	32	7	4	10	0	0	0	stim005_stimuli_original_animals_fish_1.png	Q	0	0	0	506.409139199997	506.60913570004
124294.25	100	548	15	0	32	8	3	12	0	0	0	stim004_stimuli_original_animals_birds_4.png	T	0	0	0	506.809154100018	507.009148100042
124394.25	100	549	15	0	32	9	2	2	1	0	0	stim003_stimuli_original_animals_birds_3.png	C	0	0	0	507.209161299979	507.409159400035
124494.25	100	550	15	0	32	10	10	9	0	0	0	stim011_stimuli_original_vehicles_boats_3.png	L	d	507.800961800036	0	507.609169800067	507.809168500011
124594.25	100	551	15	0	32	11	2	14	1	0	1	stim003_stimuli_original_animals_birds_3.png	V	0	0	0	508.009182999958	508.209181000013
124694.25	100	552	15	0	32	12	8	11	0	1	0	stim009_stimuli_original_vehicles_boats_1.png	R	0	0	0	508.409190100036	508.609189899988
124794.25	100	553	15	0	32	13	13	4	0	0	0	stim014_stimuli_original_vehicles_planes_2.png	E	d	509.000996900024	1	508.809202700038	509.009203900001
124894.25	100	554	15	0	32	14	11	11	0	1	0	stim012_stimuli_original_vehicles_boats_4.png	R	0	0	0	509.209227100015	509.409226799966
124994.25	100	555	15	0	32	15	14	1	0	0	0	stim015_stimuli_original_vehicles_planes_3.png	B	0	0	0	509.609222700004	509.80922429997
125094.25	100	556	15	0	32	16	12	8	0	0	0	stim013_stimuli_original_vehicles_planes_1.png	K	0	0	0	510.009233599994	510.209232600057
125194.25	100	557	15	0	32	17	5	3	0	0	0	stim006_stimuli_original_animals_fish_2.png	D	0	0	0	510.409244999988	510.609248599969
125294.25	100	558	15	0	32	18	3	5	0	0	0	stim004_stimuli_original_animals_birds_4.png	F	0	0	0	510.809253099957	511.009260299965
125394.25	100	559	15	0	32	19	8	12	0	0	0	stim009_stimuli_original_vehicles_boats_1.png	T	0	0	0	511.209265300073	511.409246700001
125494.25	100	560	15	0	32	20	1	14	0	0	0	stim002_stimuli_original_animals_birds_2.png	V	0	0	0	511.609279899974	511.809281500056
125594.25	100	561	15	0	32	21	11	11	1	0	0	stim012_stimuli_original_vehicles_boats_4.png	R	0	0	0	512.009288500063	512.209285799996
125694.25	100	562	15	0	32	22	4	13	0	0	0	stim005_stimuli_original_animals_fish_1.png	U	0	0	0	512.409298100043	512.609295299975
125794.25	100	563	15	0	32	23	11	8	1	0	1	stim012_stimuli_original_vehicles_boats_4.png	K	0	0	0	512.809309100034	513.009307299973
125894.25	100	564	15	0	32	24	14	2	0	1	0	stim015_stimuli_original_vehicles_planes_3.png	C	d	513.401117500034	1	513.20931820001	513.409318899969
125994.25	100	565	15	0	32	25	9	10	0	0	0	stim010_stimuli_original_vehicles_boats_2.png	Q	0	0	0	513.609331000014	513.809330499964
126094.25	100	566	15	0	32	26	2	2	0	1	0	stim003_stimuli_original_animals_birds_3.png	C	0	0	0	514.009390900028	514.209341799957
126194.25	100	567	15	0	32	27	12	3	0	0	0	stim013_stimuli_original_vehicles_planes_1.png	D	0	0	0	514.409357100027	514.609356799978
126294.25	100	568	15	0	32	28	10	4	0	0	0	stim011_stimuli_original_vehicles_boats_3.png	E	0	0	0	514.809366900008	515.009361100034
126394.25	100	569	15	0	32	29	13	2	0	0	0	stim014_stimuli_original_vehicles_planes_2.png	C	0	0	0	515.209377499996	515.409372700029
126494.25	100	570	15	0	32	30	7	6	0	0	0	stim008_stimuli_original_animals_fish_4.png	G	0	0	0	515.609381000046	515.809382800013
126594.25	100	571	15	0	32	31	11	15	0	0	0	stim012_stimuli_original_vehicles_boats_4.png	Y	0	0	0	516.00939250004	516.20936800004
126694.25	100	572	15	0	32	32	15	0	0	0	0	stim016_stimuli_original_vehicles_planes_4.png	A	0	0	0	516.409403300029	516.609400999965
126794.25	100	573	15	0	32	33	6	7	0	0	0	stim007_stimuli_original_animals_fish_3.png	J	0	0	0	516.809419500059	517.009413799969
126894.25	100	574	15	0	32	34	0	9	0	0	0	stim001_stimuli_original_animals_birds_1.png	L	0	0	0	517.209433500073	517.409414499998
126994.25	100	575	15	0	32	35	5	1	0	0	0	stim006_stimuli_original_animals_fish_2.png	B	0	0	0	517.609441800043	517.809437999967
127556.75	100	576	16	1	20	0	13	15	0	0	0	stim014_stimuli_original_vehicles_planes_2.png	Y	0	0	0	519.859487400041	520.059484999976
127656.75	100	577	16	1	20	1	1	7	0	0	0	stim002_stimuli_original_animals_birds_2.png	J	0	0	0	520.259503700072	520.459492300055
127756.75	100	578	16	1	20	2	9	10	0	0	0	stim010_stimuli_original_vehicles_boats_2.png	Q	0	0	0	520.659534699982	520.85950650007
127856.75	100	579	16	1	20	3	14	2	0	0	0	stim015_stimuli_original_vehicles_planes_3.png	C	0	0	0	521.059516399982	521.25953879999
127956.75	100	580	16	1	20	4	7	6	0	0	0	stim008_stimuli_original_animals_fish_4.png	G	0	0	0	521.459514899994	521.659514100058
128056.75	100	581	16	1	20	5	4	0	0	0	0	stim005_stimuli_original_animals_fish_1.png	A	0	0	0	521.859526799992	522.059526000055
128156.75	100	582	16	1	20	6	8	11	0	1	0	stim009_stimuli_original_vehicles_boats_1.png	R	0	0	0	522.259535999969	522.459535900038
128256.75	100	583	16	1	20	7	9	14	1	0	0	stim010_stimuli_original_vehicles_boats_2.png	V	0	0	0	522.659547899966	522.859548200038
128356.75	100	584	16	1	20	8	0	11	0	1	1	stim001_stimuli_original_animals_birds_1.png	R	0	0	0	523.05955850007	523.259570299997
128456.75	100	585	16	1	20	9	9	13	1	0	0	stim010_stimuli_original_vehicles_boats_2.png	U	d	523.651363600045	1	523.459568000049	523.659569400013
128556.75	100	586	16	1	20	10	12	8	0	0	0	stim013_stimuli_original_vehicles_planes_1.png	K	0	0	0	523.859593900037	524.059590199962
128656.75	100	587	16	1	20	11	2	4	0	0	0	stim003_stimuli_original_animals_birds_3.png	E	0	0	0	524.259590600035	524.459588399972
128756.75	100	588	16	1	20	12	5	3	0	0	0	stim006_stimuli_original_animals_fish_2.png	D	0	0	0	524.659601100022	524.859600499971
128856.75	100	589	16	1	20	13	11	12	0	0	0	stim012_stimuli_original_vehicles_boats_4.png	T	0	0	0	525.059611100005	525.259611199959
128956.75	100	590	16	1	20	14	10	9	0	0	0	stim011_stimuli_original_vehicles_boats_3.png	L	0	0	0	525.459664699971	525.659621600062
129056.75	100	591	16	1	20	15	3	11	0	0	0	stim004_stimuli_original_animals_birds_4.png	R	0	0	0	525.859638300026	526.059631800046
129156.75	100	592	16	1	20	16	6	1	0	0	0	stim007_stimuli_original_animals_fish_3.png	B	0	0	0	526.259643099969	526.459647300071
129256.75	100	593	16	1	20	17	15	5	0	0	0	stim016_stimuli_original_vehicles_planes_4.png	F	d	526.652248900034	0	526.659656899981	526.859653100022
129356.75	100	594	16	1	20	18	5	15	0	0	0	stim006_stimuli_original_animals_fish_2.png	Y	0	0	0	527.059664300061	527.259665200021
129456.75	100	595	16	1	20	19	1	6	0	0	0	stim002_stimuli_original_animals_birds_2.png	G	0	0	0	527.459675500053	527.659675300005
129556.75	100	596	16	1	20	20	11	3	0	0	0	stim012_stimuli_original_vehicles_boats_4.png	D	0	0	0	527.859686200041	528.059711899958
129656.75	100	597	16	1	20	21	9	10	0	0	0	stim010_stimuli_original_vehicles_boats_2.png	Q	0	0	0	528.259695500019	528.459691300057
129756.75	100	598	16	1	20	22	12	11	0	0	0	stim013_stimuli_original_vehicles_planes_1.png	R	0	0	0	528.659774000058	528.859707599971
129856.75	100	599	16	1	20	23	3	5	0	0	0	stim004_stimuli_original_animals_birds_4.png	F	0	0	0	529.059737200034	529.259717999958
129956.75	100	600	16	1	20	24	4	2	0	0	0	stim005_stimuli_original_animals_fish_1.png	C	0	0	0	529.459729299997	529.659740100033
130056.75	100	601	16	1	20	25	8	12	0	0	0	stim009_stimuli_original_vehicles_boats_1.png	T	0	0	0	529.859753799974	530.059749000007
130156.75	100	602	16	1	20	26	13	9	0	1	0	stim014_stimuli_original_vehicles_planes_2.png	L	0	0	0	530.259751399979	530.459748600028
130256.75	100	603	16	1	20	27	11	0	1	0	0	stim012_stimuli_original_vehicles_boats_4.png	A	0	0	0	530.659783700015	530.85976859997
130356.75	100	604	16	1	20	28	14	9	0	1	1	stim015_stimuli_original_vehicles_planes_3.png	L	0	0	0	531.059799500043	531.259771100013
130456.75	100	605	16	1	20	29	11	8	1	0	0	stim012_stimuli_original_vehicles_boats_4.png	K	d	531.651574100018	1	531.459781800047	531.659779799986
130556.75	100	606	16	1	20	30	0	4	0	0	0	stim001_stimuli_original_animals_birds_1.png	E	0	0	0	531.859804000007	532.059789399966
130656.75	100	607	16	1	20	31	6	7	0	0	0	stim007_stimuli_original_animals_fish_3.png	J	0	0	0	532.259804100031	532.459800799959
130756.75	100	608	16	1	20	32	2	14	0	0	0	stim003_stimuli_original_animals_birds_3.png	V	0	0	0	532.659814800019	532.859813999967
130856.75	100	609	16	1	20	33	10	9	0	0	0	stim011_stimuli_original_vehicles_boats_3.png	L	0	0	0	533.059824199998	533.259849200025
130956.75	100	610	16	1	20	34	7	1	0	0	0	stim008_stimuli_original_animals_fish_4.png	B	0	0	0	533.459834799985	533.659846200026
131056.75	100	611	16	1	20	35	15	13	0	0	0	stim016_stimuli_original_vehicles_planes_4.png	U	0	0	0	533.859847499989	534.059844700038
131673.5	100	612	17	0	1	0	13	11	0	0	0	stim014_stimuli_original_vehicles_planes_2.png	R	0	0	0	536.326592499972	536.526595500065
131773.5	100	613	17	0	1	1	12	2	0	0	0	stim013_stimuli_original_vehicles_planes_1.png	C	0	0	0	536.726604899974	536.926597699989
131873.5	100	614	17	0	1	2	5	0	0	0	0	stim006_stimuli_original_animals_fish_2.png	A	0	0	0	537.126610700041	537.326639699982
131973.5	100	615	17	0	1	3	4	1	0	0	0	stim005_stimuli_original_animals_fish_1.png	B	0	0	0	537.526622000034	537.726636399981
132073.5	100	616	17	0	1	4	0	15	1	0	0	stim001_stimuli_original_animals_birds_1.png	Y	0	0	0	537.926659499994	538.126631499967
132173.5	100	617	17	0	1	5	6	7	0	0	0	stim007_stimuli_original_animals_fish_3.png	J	0	0	0	538.326645100024	538.526645399979
132273.5	100	618	17	0	1	6	0	3	1	0	1	stim001_stimuli_original_animals_birds_1.png	D	0	0	0	538.726657000021	538.926652700058
132373.5	100	619	17	0	1	7	10	8	0	0	0	stim011_stimuli_original_vehicles_boats_3.png	K	0	0	0	539.1266664	539.326665500063
132473.5	100	620	17	0	1	8	9	13	0	0	0	stim010_stimuli_original_vehicles_boats_2.png	U	0	0	0	539.526679000002	539.726674000034
132573.5	100	621	17	0	1	9	14	5	0	0	0	stim015_stimuli_original_vehicles_planes_3.png	F	0	0	0	539.926707600011	540.126684600022
132673.5	100	622	17	0	1	10	11	4	0	0	0	stim012_stimuli_original_vehicles_boats_4.png	E	0	0	0	540.32669580006	540.52670050005
132773.5	100	623	17	0	1	11	7	10	0	0	0	stim008_stimuli_original_animals_fish_4.png	Q	0	0	0	540.726708200062	540.926707800012
132873.5	100	624	17	0	1	12	8	3	0	1	0	stim009_stimuli_original_vehicles_boats_1.png	D	0	0	0	541.126719500055	541.326715899981
132973.5	100	625	17	0	1	13	2	9	0	0	0	stim003_stimuli_original_animals_birds_3.png	L	0	0	0	541.526731400052	541.726726999972
133073.5	100	626	17	0	1	14	1	3	0	1	0	stim002_stimuli_original_animals_birds_2.png	D	0	0	0	541.92673940002	542.126734700054
133173.5	100	627	17	0	1	15	0	14	0	0	0	stim001_stimuli_original_animals_birds_1.png	V	0	0	0	542.326750000007	542.526761900051
133273.5	100	628	17	0	1	16	3	6	0	0	0	stim004_stimuli_original_animals_birds_4.png	G	0	0	0	542.726762300008	542.926755600027
133373.5	100	629	17	0	1	17	15	12	0	0	0	stim016_stimuli_original_vehicles_planes_4.png	T	0	0	0	543.126774000004	543.326771100052
133473.5	100	630	17	0	1	18	12	15	0	0	0	stim013_stimuli_original_vehicles_planes_1.png	Y	0	0	0	543.526782799978	543.72678180004
133573.5	100	631	17	0	1	19	6	3	0	0	0	stim007_stimuli_original_animals_fish_3.png	D	0	0	0	543.92679269996	544.126792600029
133673.5	100	632	17	0	1	20	14	0	0	0	0	stim015_stimuli_original_vehicles_planes_3.png	A	0	0	0	544.326804200071	544.526803900022
133773.5	100	633	17	0	1	21	3	1	1	0	0	stim004_stimuli_original_animals_birds_4.png	B	0	0	0	544.726834399975	544.92681189999
133873.5	100	634	17	0	1	22	9	2	0	0	0	stim010_stimuli_original_vehicles_boats_2.png	C	0	0	0	545.126826000051	545.326839999994
133973.5	100	635	17	0	1	23	3	8	1	0	1	stim004_stimuli_original_animals_birds_4.png	K	0	0	0	545.526833900018	545.726835799986
134073.5	100	636	17	0	1	24	10	7	0	0	0	stim011_stimuli_original_vehicles_boats_3.png	J	0	0	0	545.9268438	546.126844000071
134173.5	100	637	17	0	1	25	4	11	0	0	0	stim005_stimuli_original_animals_fish_1.png	R	0	0	0	546.326855699997	546.526855700067
134273.5	100	638	17	0	1	26	5	14	0	0	0	stim006_stimuli_original_animals_fish_2.png	V	0	0	0	546.726869000006	546.926867500064
134373.5	100	639	17	0	1	27	13	9	0	0	0	stim014_stimuli_original_vehicles_planes_2.png	L	0	0	0	547.126877099974	547.326865500072
134473.5	100	640	17	0	1	28	8	10	0	0	0	stim009_stimuli_original_vehicles_boats_1.png	Q	0	0	0	547.526888199965	547.726887600031
134573.5	100	641	17	0	1	29	3	0	0	1	0	stim004_stimuli_original_animals_birds_4.png	A	0	0	0	547.926925400039	548.126900400035
134673.5	100	642	17	0	1	30	7	6	0	0	0	stim008_stimuli_original_animals_fish_4.png	G	0	0	0	548.326908900053	548.526912200032
134773.5	100	643	17	0	1	31	15	0	0	1	0	stim016_stimuli_original_vehicles_planes_4.png	A	0	0	0	548.726951100049	548.926917199977
134873.5	100	644	17	0	1	32	1	4	0	0	0	stim002_stimuli_original_animals_birds_2.png	E	0	0	0	549.126933400054	549.326932700002
134973.5	100	645	17	0	1	33	0	5	0	0	0	stim001_stimuli_original_animals_birds_1.png	F	0	0	0	549.526947500068	549.726941899979
135073.5	100	646	17	0	1	34	2	12	0	0	0	stim003_stimuli_original_animals_birds_3.png	T	0	0	0	549.926966600004	550.126953199971
135173.5	100	647	17	0	1	35	11	13	0	0	0	stim012_stimuli_original_vehicles_boats_4.png	U	0	0	0	550.326963600004	550.526976900059
135798.5	100	648	18	1	0	0	0	9	0	0	0	stim001_stimuli_original_animals_birds_1.png	L	0	0	0	552.827033700072	553.027018700028
135898.5	100	649	18	1	0	1	4	11	0	0	0	stim005_stimuli_original_animals_fish_1.png	R	0	0	0	553.227029500064	553.427028000006
135998.5	100	650	18	1	0	2	12	13	0	0	0	stim013_stimuli_original_vehicles_planes_1.png	U	0	0	0	553.627042000066	553.827042900026
136098.5	100	651	18	1	0	3	13	2	0	0	0	stim014_stimuli_original_vehicles_planes_2.png	C	0	0	0	554.027051200042	554.227066599997
136198.5	100	652	18	1	0	4	5	8	0	0	0	stim006_stimuli_original_animals_fish_2.png	K	0	0	0	554.427073500003	554.627063699998
136298.5	100	653	18	1	0	5	2	7	0	0	0	stim003_stimuli_original_animals_birds_3.png	J	0	0	0	554.827073400025	555.027083000052
136398.5	100	654	18	1	0	6	3	1	0	0	0	stim004_stimuli_original_animals_birds_4.png	B	0	0	0	555.227082800004	555.427091800026
136498.5	100	655	18	1	0	7	15	10	0	0	0	stim016_stimuli_original_vehicles_planes_4.png	Q	0	0	0	555.627095600008	555.82709669997
136598.5	100	656	18	1	0	8	4	6	1	0	0	stim005_stimuli_original_animals_fish_1.png	G	0	0	0	556.027105699992	556.227105200058
136698.5	100	657	18	1	0	9	8	15	0	1	0	stim009_stimuli_original_vehicles_boats_1.png	Y	0	0	0	556.427131099976	556.627126700012
136798.5	100	658	18	1	0	10	4	14	1	0	0	stim005_stimuli_original_animals_fish_1.png	V	0	0	0	556.827126999968	557.027124900022
136898.5	100	659	18	1	0	11	1	15	0	1	1	stim002_stimuli_original_animals_birds_2.png	Y	0	0	0	557.227137999958	557.427137200022
136998.5	100	660	18	1	0	12	14	4	0	0	0	stim015_stimuli_original_vehicles_planes_3.png	E	0	0	0	557.627151199966	557.827146600001
137098.5	100	661	18	1	0	13	7	12	0	0	0	stim008_stimuli_original_animals_fish_4.png	T	0	0	0	558.027159700054	558.227156299981
137198.5	100	662	18	1	0	14	10	5	0	0	0	stim011_stimuli_original_vehicles_boats_3.png	F	0	0	0	558.427168100025	558.627182599972
137298.75	100	663	18	1	0	15	9	0	0	0	0	stim010_stimuli_original_vehicles_boats_2.png	A	0	0	0	558.827181600034	559.027181099984
137398.75	100	664	18	1	0	16	11	15	0	0	0	stim012_stimuli_original_vehicles_boats_4.png	Y	0	0	0	559.227190900012	559.427188300062
137498.75	100	665	18	1	0	17	6	3	0	0	0	stim007_stimuli_original_animals_fish_3.png	D	0	0	0	559.627200999996	559.827201300068
137598.75	100	666	18	1	0	18	3	6	0	0	0	stim004_stimuli_original_animals_birds_4.png	G	0	0	0	560.027215000009	560.227211700054
137698.75	100	667	18	1	0	19	15	11	0	0	0	stim016_stimuli_original_vehicles_planes_4.png	R	0	0	0	560.427235300071	560.627235900029
137798.75	100	668	18	1	0	20	0	9	0	0	0	stim001_stimuli_original_animals_birds_1.png	L	0	0	0	560.82724480005	561.027244700002
137898.75	100	669	18	1	0	21	5	10	0	0	0	stim006_stimuli_original_animals_fish_2.png	Q	0	0	0	561.227255900041	561.427254599985
137998.75	100	670	18	1	0	22	12	7	0	0	0	stim013_stimuli_original_vehicles_planes_1.png	J	0	0	0	561.627256800071	561.827260000049
138098.75	100	671	18	1	0	23	4	14	0	0	0	stim005_stimuli_original_animals_fish_1.png	V	0	0	0	562.027264800039	562.227263999986
138198.75	100	672	18	1	0	24	15	1	1	0	0	stim016_stimuli_original_vehicles_planes_4.png	B	0	0	0	562.427280000062	562.627288699965
138298.75	100	673	18	1	0	25	14	4	0	1	0	stim015_stimuli_original_vehicles_planes_3.png	E	0	0	0	562.82728670002	563.027289599995
138398.75	100	674	18	1	0	26	15	8	1	0	0	stim016_stimuli_original_vehicles_planes_4.png	K	0	0	0	563.22730160004	563.427295800066
138498.75	100	675	18	1	0	27	6	4	0	1	1	stim007_stimuli_original_animals_fish_3.png	E	0	0	0	563.627310700016	563.827312199981
138598.75	100	676	18	1	0	28	10	15	0	0	0	stim011_stimuli_original_vehicles_boats_3.png	Y	0	0	0	564.027320199995	564.227316200035
138698.75	100	677	18	1	0	29	1	3	0	0	0	stim002_stimuli_original_animals_birds_2.png	D	0	0	0	564.42732909997	564.627330200048
138798.75	100	678	18	1	0	30	7	2	0	0	0	stim008_stimuli_original_animals_fish_4.png	C	0	0	0	564.827340399963	565.027340300032
138898.75	100	679	18	1	0	31	8	5	0	0	0	stim009_stimuli_original_vehicles_boats_1.png	F	0	0	0	565.227350200061	565.427348700003
138998.75	100	680	18	1	0	32	2	13	0	0	0	stim003_stimuli_original_animals_birds_3.png	U	0	0	0	565.627360000042	565.827360499999
139098.75	100	681	18	1	0	33	13	12	0	0	0	stim014_stimuli_original_vehicles_planes_2.png	T	0	0	0	566.027371200034	566.227370099979
139198.75	100	682	18	1	0	34	11	4	0	0	0	stim012_stimuli_original_vehicles_boats_4.png	E	0	0	0	566.427398600033	566.627395399963
139298.75	100	683	18	1	0	35	9	0	0	0	0	stim010_stimuli_original_vehicles_boats_2.png	A	0	0	0	566.827395500033	567.027392399963
140061.25	100	684	19	0	27	0	11	3	0	0	0	stim012_stimuli_original_vehicles_boats_4.png	D	0	0	0	569.877511000028	570.07750340004
140161.25	100	685	19	0	27	1	12	14	0	0	0	stim013_stimuli_original_vehicles_planes_1.png	V	0	0	0	570.277509100037	570.477496100008
140261.25	100	686	19	0	27	2	10	8	0	0	0	stim011_stimuli_original_vehicles_boats_3.png	K	0	0	0	570.677524800063	570.877522800001
140361.25	100	687	19	0	27	3	7	6	0	0	0	stim008_stimuli_original_animals_fish_4.png	G	0	0	0	571.077519500046	571.277537700022
140461.25	100	688	19	0	27	4	15	2	0	0	0	stim016_stimuli_original_vehicles_planes_4.png	C	0	0	0	571.477541700006	571.677543999976
140561.25	100	689	19	0	27	5	8	11	0	0	0	stim009_stimuli_original_vehicles_boats_1.png	R	d	572.069362099981	0	571.877555200015	572.077552100061
140661.25	100	690	19	0	27	6	3	13	0	0	0	stim004_stimuli_original_animals_birds_4.png	U	0	0	0	572.277566600009	572.477564500063
140761.25	100	691	19	0	27	7	9	12	0	0	0	stim010_stimuli_original_vehicles_boats_2.png	T	0	0	0	572.677577499999	572.877534299972
140861.25	100	692	19	0	27	8	5	15	0	0	0	stim006_stimuli_original_animals_fish_2.png	Y	0	0	0	573.077561400016	573.277585500036
140961.25	100	693	19	0	27	9	15	1	1	0	0	stim016_stimuli_original_vehicles_planes_4.png	B	0	0	0	573.477605600026	573.677621699986
141061.25	100	694	19	0	27	10	2	0	0	0	0	stim003_stimuli_original_animals_birds_3.png	A	0	0	0	573.877616800019	574.077612600056
141161.25	100	695	19	0	27	11	15	4	1	0	1	stim016_stimuli_original_vehicles_planes_4.png	E	0	0	0	574.277615700033	574.477618800011
141261.25	100	696	19	0	27	12	14	12	0	1	0	stim015_stimuli_original_vehicles_planes_3.png	T	0	0	0	574.677624400007	574.877624599962
141361.25	100	697	19	0	27	13	13	9	0	0	0	stim014_stimuli_original_vehicles_planes_2.png	L	0	0	0	575.077644100063	575.277635600069
141461.25	100	698	19	0	27	14	4	12	0	1	0	stim005_stimuli_original_animals_fish_1.png	T	0	0	0	575.477647599997	575.677644400042
141561.25	100	699	19	0	27	15	1	10	0	0	0	stim002_stimuli_original_animals_birds_2.png	Q	0	0	0	575.877656799974	576.077657800051
141661.25	100	700	19	0	27	16	6	5	0	0	0	stim007_stimuli_original_animals_fish_3.png	F	0	0	0	576.277665500063	576.477664400009
141761.25	100	701	19	0	27	17	0	7	0	0	0	stim001_stimuli_original_animals_birds_1.png	J	0	0	0	576.677680199966	576.877677600016
141861.25	100	702	19	0	27	18	7	0	0	0	0	stim008_stimuli_original_animals_fish_4.png	A	0	0	0	577.077691399958	577.277693500044
141961.25	100	703	19	0	27	19	5	6	0	0	0	stim006_stimuli_original_animals_fish_2.png	G	0	0	0	577.477704099962	577.677705300041
142061.25	100	704	19	0	27	20	10	1	0	0	0	stim011_stimuli_original_vehicles_boats_3.png	B	0	0	0	577.877716399962	578.077728500008
142161.25	100	705	19	0	27	21	12	4	1	0	0	stim013_stimuli_original_vehicles_planes_1.png	E	0	0	0	578.27772090002	578.477722299984
142261.25	100	706	19	0	27	22	9	13	0	0	0	stim010_stimuli_original_vehicles_boats_2.png	U	0	0	0	578.677737900056	578.877735599992
142361.25	100	707	19	0	27	23	12	14	1	0	1	stim013_stimuli_original_vehicles_planes_1.png	V	0	0	0	579.077746800031	579.277745799976
142461.25	100	708	19	0	27	24	4	15	0	1	0	stim005_stimuli_original_animals_fish_1.png	Y	0	0	0	579.4777397	579.677758399979
142561.25	100	709	19	0	27	25	0	2	0	0	0	stim001_stimuli_original_animals_birds_1.png	C	0	0	0	579.87777120003	580.077771099983
142661.25	100	710	19	0	27	26	1	15	0	1	0	stim002_stimuli_original_animals_birds_2.png	Y	0	0	0	580.277764300001	580.477778100059
142761.25	100	711	19	0	27	27	15	5	0	0	0	stim016_stimuli_original_vehicles_planes_4.png	F	0	0	0	580.677811400034	580.877793299966
142861.25	100	712	19	0	27	28	12	9	0	0	0	stim013_stimuli_original_vehicles_planes_1.png	L	0	0	0	581.07779999997	581.277784000034
142961.25	100	713	19	0	27	29	13	3	0	0	0	stim014_stimuli_original_vehicles_planes_2.png	D	0	0	0	581.47780880006	581.677810100024
143061.25	100	714	19	0	27	30	11	8	0	0	0	stim012_stimuli_original_vehicles_boats_4.png	K	0	0	0	581.877821900067	582.07782050001
143161.25	100	715	19	0	27	31	2	15	0	0	0	stim003_stimuli_original_animals_birds_3.png	Y	0	0	0	582.277837799978	582.4778314
143261.25	100	716	19	0	27	32	6	7	0	0	0	stim007_stimuli_original_animals_fish_3.png	J	0	0	0	582.67784150003	582.87784099998
143361.25	100	717	19	0	27	33	8	10	0	0	0	stim009_stimuli_original_vehicles_boats_1.png	Q	0	0	0	583.077852600021	583.277845300036
143461.25	100	718	19	0	27	34	14	12	0	0	0	stim015_stimuli_original_vehicles_planes_3.png	T	0	0	0	583.477862500004	583.67786210007
143561.25	100	719	19	0	27	35	3	11	0	0	0	stim004_stimuli_original_animals_birds_4.png	R	0	0	0	583.877876400016	584.077872300055
144148.75	100	720	20	1	29	0	0	8	0	0	0	stim001_stimuli_original_animals_birds_1.png	K	0	0	0	586.227924300008	586.427934400039
144248.75	100	721	20	1	29	1	15	11	0	0	0	stim016_stimuli_original_vehicles_planes_4.png	R	0	0	0	586.627937000012	586.827931600041
144348.75	100	722	20	1	29	2	7	14	0	0	0	stim008_stimuli_original_animals_fish_4.png	V	0	0	0	587.027945699985	587.227941800025
144448.75	100	723	20	1	29	3	12	7	0	0	0	stim013_stimuli_original_vehicles_planes_1.png	J	0	0	0	587.427944800002	587.627944400068
144548.75	100	724	20	1	29	4	10	6	0	0	0	stim011_stimuli_original_vehicles_boats_3.png	G	0	0	0	587.827955299988	588.027973099961
144648.75	100	725	20	1	29	5	14	0	1	1	0	stim015_stimuli_original_vehicles_planes_3.png	A	0	0	0	588.22796379996	588.427991300006
144748.75	100	726	20	1	29	6	2	1	0	0	0	stim003_stimuli_original_animals_birds_3.png	B	0	0	0	588.627974100062	588.827990900027
144848.75	100	727	20	1	29	7	14	0	1	1	1	stim015_stimuli_original_vehicles_planes_3.png	A	0	0	0	589.028006799985	589.227984600002
144948.75	100	728	20	1	29	8	4	3	0	0	0	stim005_stimuli_original_animals_fish_1.png	D	0	0	0	589.428000099957	589.627997600008
145048.75	100	729	20	1	29	9	13	9	0	0	0	stim014_stimuli_original_vehicles_planes_2.png	L	0	0	0	589.828007500037	590.028007599991
145148.75	100	730	20	1	29	10	9	15	0	0	0	stim010_stimuli_original_vehicles_boats_2.png	Y	0	0	0	590.228017900023	590.428015699959
145248.75	100	731	20	1	29	11	5	5	0	0	0	stim006_stimuli_original_animals_fish_2.png	F	0	0	0	590.628028700012	590.828028299962
145348.75	100	732	20	1	29	12	14	2	0	0	0	stim015_stimuli_original_vehicles_planes_3.png	C	0	0	0	591.028059000033	591.228037400055
145448.75	100	733	20	1	29	13	3	0	0	0	0	stim004_stimuli_original_animals_birds_4.png	A	0	0	0	591.428049299982	591.628050000058
145548.75	100	734	20	1	29	14	11	12	0	0	0	stim012_stimuli_original_vehicles_boats_4.png	T	d	592.019852300058	0	591.828060899978	592.02806250006
145648.75	100	735	20	1	29	15	1	10	0	0	0	stim002_stimuli_original_animals_birds_2.png	Q	0	0	0	592.228070999961	592.42807220004
145748.75	100	736	20	1	29	16	6	13	0	0	0	stim007_stimuli_original_animals_fish_3.png	U	0	0	0	592.628081500065	592.828079300001
145848.75	100	737	20	1	29	17	8	4	0	0	0	stim009_stimuli_original_vehicles_boats_1.png	E	0	0	0	593.028096399968	593.228125800029
145948.75	100	738	20	1	29	18	4	8	0	0	0	stim005_stimuli_original_animals_fish_1.png	K	0	0	0	593.428102000034	593.628101799986
146048.75	100	739	20	1	29	19	13	6	0	0	0	stim014_stimuli_original_vehicles_planes_2.png	G	0	0	0	593.828129400034	594.028116500005
146148.75	100	740	20	1	29	20	10	1	0	0	0	stim011_stimuli_original_vehicles_boats_3.png	B	0	0	0	594.228123400011	594.428124899976
146248.75	100	741	20	1	29	21	12	11	0	0	0	stim013_stimuli_original_vehicles_planes_1.png	R	0	0	0	594.628133899998	594.828148100059
146348.75	100	742	20	1	29	22	0	3	0	0	0	stim001_stimuli_original_animals_birds_1.png	D	0	0	0	595.028147400008	595.228145900066
146448.75	100	743	20	1	29	23	2	14	0	0	0	stim003_stimuli_original_animals_birds_3.png	V	0	0	0	595.428155599977	595.628153600032
146548.75	100	744	20	1	29	24	5	5	0	0	0	stim006_stimuli_original_animals_fish_2.png	F	0	0	0	595.828164900071	596.028171899961
146648.75	100	745	20	1	29	25	15	9	0	0	0	stim016_stimuli_original_vehicles_planes_4.png	L	0	0	0	596.228191800066	596.428192700027
146748.75	100	746	20	1	29	26	9	13	0	0	0	stim010_stimuli_original_vehicles_boats_2.png	U	0	0	0	596.628188300063	596.828198299976
146848.75	100	747	20	1	29	27	3	4	0	0	0	stim004_stimuli_original_animals_birds_4.png	E	0	0	0	597.028204099974	597.228201100021
146948.75	100	748	20	1	29	28	0	14	1	1	0	stim001_stimuli_original_animals_birds_1.png	V	0	0	0	597.428210000042	597.628209899995
147048.75	100	749	20	1	29	29	1	2	0	0	0	stim002_stimuli_original_animals_birds_2.png	C	0	0	0	597.828223700053	598.02823070006
147148.75	100	750	20	1	29	30	0	14	1	1	1	stim001_stimuli_original_animals_birds_1.png	V	0	0	0	598.228244800004	598.428263199981
147248.75	100	751	20	1	29	31	6	10	0	0	0	stim007_stimuli_original_animals_fish_3.png	Q	d	598.82008580002	1	598.628254599986	598.828254000051
147348.75	100	752	20	1	29	32	7	12	0	0	0	stim008_stimuli_original_animals_fish_4.png	T	0	0	0	599.028276500059	599.228286799975
147448.75	100	753	20	1	29	33	14	7	0	0	0	stim015_stimuli_original_vehicles_planes_3.png	J	d	599.420879699988	1	599.428295499994	599.628293000045
147549	100	754	20	1	29	34	11	15	0	0	0	stim012_stimuli_original_vehicles_boats_4.png	Y	0	0	0	599.828304899973	600.028307000059
147649	100	755	20	1	29	35	8	0	0	0	0	stim009_stimuli_original_vehicles_boats_1.png	A	0	0	0	600.228316599969	600.428313900018
149928	100	756	21	0	20	0	13	15	0	0	0	stim014_stimuli_original_vehicles_planes_2.png	Y	0	0	0	609.345219200011	609.545219199965
150028	100	757	21	0	20	1	1	7	0	0	0	stim002_stimuli_original_animals_birds_2.png	J	0	0	0	609.745230400003	609.94522740005
150128	100	758	21	0	20	2	9	10	0	0	0	stim010_stimuli_original_vehicles_boats_2.png	Q	0	0	0	610.145241599996	610.345237500034
150228	100	759	21	0	20	3	14	2	0	0	0	stim015_stimuli_original_vehicles_planes_3.png	C	0	0	0	610.545248899958	610.745264900033
150328	100	760	21	0	20	4	7	6	0	0	0	stim008_stimuli_original_animals_fish_4.png	G	0	0	0	610.945258900058	611.145269999979
150428	100	761	21	0	20	5	4	0	0	0	0	stim005_stimuli_original_animals_fish_1.png	A	0	0	0	611.345272100065	611.545294799958
150528	100	762	21	0	20	6	8	11	0	1	0	stim009_stimuli_original_vehicles_boats_1.png	R	0	0	0	611.745280100033	611.945281199994
150628	100	763	21	0	20	7	9	14	1	0	0	stim010_stimuli_original_vehicles_boats_2.png	V	0	0	0	612.145290300017	612.345295800013
150728	100	764	21	0	20	8	0	11	0	1	0	stim001_stimuli_original_animals_birds_1.png	R	0	0	0	612.545304600033	612.745279000024
150828	100	765	21	0	20	9	9	13	1	0	1	stim010_stimuli_original_vehicles_boats_2.png	U	0	0	0	612.945315900026	613.145315899979
150928	100	766	21	0	20	10	12	8	0	0	0	stim013_stimuli_original_vehicles_planes_1.png	K	d	613.537117199972	1	613.345325900009	613.54532480007
151028.25	100	767	21	0	20	11	2	4	0	0	0	stim003_stimuli_original_animals_birds_3.png	E	0	0	0	613.745337200002	613.94533300004
151128.25	100	768	21	0	20	12	5	3	0	0	0	stim006_stimuli_original_animals_fish_2.png	D	0	0	0	614.145346199977	614.345343700028
151228.25	100	769	21	0	20	13	11	12	0	0	0	stim012_stimuli_original_vehicles_boats_4.png	T	0	0	0	614.545354500064	614.745355700026
151328.25	100	770	21	0	20	14	10	9	0	0	0	stim011_stimuli_original_vehicles_boats_3.png	L	0	0	0	614.945370199974	615.145350100007
151428.25	100	771	21	0	20	15	3	11	0	0	0	stim004_stimuli_original_animals_birds_4.png	R	0	0	0	615.34534920007	615.545375599992
151528.25	100	772	21	0	20	16	6	1	0	0	0	stim007_stimuli_original_animals_fish_3.png	B	0	0	0	615.745387300034	615.945412800065
151628.25	100	773	21	0	20	17	15	5	0	0	0	stim016_stimuli_original_vehicles_planes_4.png	F	0	0	0	616.14539640001	616.345400099992
151728.25	100	774	21	0	20	18	5	15	0	0	0	stim006_stimuli_original_animals_fish_2.png	Y	0	0	0	616.545412800042	616.745407899958
151828.25	100	775	21	0	20	19	1	6	0	0	0	stim002_stimuli_original_animals_birds_2.png	G	0	0	0	616.945418799995	617.145398500026
151928.25	100	776	21	0	20	20	11	3	0	0	0	stim012_stimuli_original_vehicles_boats_4.png	D	0	0	0	617.345408100053	617.545408300008
152028.25	100	777	21	0	20	21	9	10	0	0	0	stim010_stimuli_original_vehicles_boats_2.png	Q	0	0	0	617.745419400046	617.945418399991
152128.25	100	778	21	0	20	22	12	11	0	0	0	stim013_stimuli_original_vehicles_planes_1.png	R	0	0	0	618.145446300041	618.345429599984
152228.25	100	779	21	0	20	23	3	5	0	0	0	stim004_stimuli_original_animals_birds_4.png	F	0	0	0	618.545441100025	618.745447800029
152328.25	100	780	21	0	20	24	4	2	0	0	0	stim005_stimuli_original_animals_fish_1.png	C	0	0	0	618.945451800013	619.145452699973
152428.25	100	781	21	0	20	25	8	12	0	0	0	stim009_stimuli_original_vehicles_boats_1.png	T	0	0	0	619.345460499986	619.545462799957
152528.25	100	782	21	0	20	26	13	9	0	1	0	stim014_stimuli_original_vehicles_planes_2.png	L	0	0	0	619.745472299983	619.945472300053
152628.25	100	783	21	0	20	27	11	0	1	0	0	stim012_stimuli_original_vehicles_boats_4.png	A	0	0	0	620.145483599976	620.345482800039
152728.25	100	784	21	0	20	28	14	9	0	1	0	stim015_stimuli_original_vehicles_planes_3.png	L	0	0	0	620.545494699967	620.745494100032
152828.25	100	785	21	0	20	29	11	8	1	0	1	stim012_stimuli_original_vehicles_boats_4.png	K	0	0	0	620.945504500065	621.145504400018
152928.25	100	786	21	0	20	30	0	4	0	0	0	stim001_stimuli_original_animals_birds_1.png	E	d	621.338065400021	1	621.345516200061	621.54551560001
153028.25	100	787	21	0	20	31	6	7	0	0	0	stim007_stimuli_original_animals_fish_3.png	J	0	0	0	621.745526600047	621.945527700009
153128.25	100	788	21	0	20	32	2	14	0	0	0	stim003_stimuli_original_animals_birds_3.png	V	0	0	0	622.14553660003	622.345551899984
153228.25	100	789	21	0	20	33	10	9	0	0	0	stim011_stimuli_original_vehicles_boats_3.png	L	0	0	0	622.545548900031	622.74555890006
153328.25	100	790	21	0	20	34	7	1	0	0	0	stim008_stimuli_original_animals_fish_4.png	B	0	0	0	622.945558900014	623.145556800067
153428.25	100	791	21	0	20	35	15	13	0	0	0	stim016_stimuli_original_vehicles_planes_4.png	U	0	0	0	623.345568199991	623.545568500063
153999	100	792	22	1	47	0	5	4	0	0	0	stim006_stimuli_original_animals_fish_2.png	E	0	0	0	625.628964200034	625.828965499997
154099	100	793	22	1	47	1	0	15	0	0	0	stim001_stimuli_original_animals_birds_1.png	Y	0	0	0	626.028974300018	626.228973599966
154199	100	794	22	1	47	2	8	6	0	0	0	stim009_stimuli_original_vehicles_boats_1.png	G	0	0	0	626.42898289999	626.628983600065
154299	100	795	22	1	47	3	1	11	0	0	0	stim002_stimuli_original_animals_birds_2.png	R	0	0	0	626.828996299999	627.028995000059
154399	100	796	22	1	47	4	2	0	1	0	0	stim003_stimuli_original_animals_birds_3.png	A	0	0	0	627.2290087	627.429028499988
