onset	duration	eventnumber	sequencenumber	condition	streamnumber	stimnumber	objectstimnumber	letterstimnumber	objecttarget	lettertarget	is2back	objectstim	letterstim	response	rt	correct	time_stimon	time_stimoff
14199.25	100	0	0	0	25	0	14	6	0	0	0	stim015_stimuli_original_vehicles_planes_3.png	G	0	0	0	46.4303780000191	46.6306369000231
14299.25	100	1	0	0	25	1	1	4	0	0	0	stim002_stimuli_original_animals_birds_2.png	E	0	0	0	46.8303928999812	47.0303838999826
14399.25	100	2	0	0	25	2	5	15	0	0	0	stim006_stimuli_original_animals_fish_2.png	Y	0	0	0	47.2304091000115	47.4303944000276
14499.25	100	3	0	0	25	3	15	0	0	0	0	stim016_stimuli_original_vehicles_planes_4.png	A	0	0	0	47.6304060000111	47.8304233999806
14599.25	100	4	0	0	25	4	11	1	0	0	0	stim012_stimuli_original_vehicles_boats_4.png	B	0	0	0	48.0304204999702	48.2304308000021
14699.25	100	5	0	0	25	5	2	11	0	0	0	stim003_stimuli_original_animals_birds_3.png	R	0	0	0	48.4304387000157	48.630439999979
14799.25	100	6	0	0	25	6	0	5	0	0	0	stim001_stimuli_original_animals_birds_1.png	F	0	0	0	48.8304497000063	49.0304474000004
14899.25	100	7	0	0	25	7	4	7	0	0	0	stim005_stimuli_original_animals_fish_1.png	J	0	0	0	49.2304597999901	49.4304654999869
14999.25	100	8	0	0	25	8	10	13	1	0	0	stim011_stimuli_original_vehicles_boats_3.png	U	0	0	0	49.6304586000042	49.830458100012
15099.25	100	9	0	0	25	9	12	10	0	0	0	stim013_stimuli_original_vehicles_planes_1.png	Q	0	0	0	50.0304692999925	50.2304688000004
15199.25	100	10	0	0	25	10	10	3	1	0	1	stim011_stimuli_original_vehicles_boats_3.png	D	0	0	0	50.4304808999877	50.630479799991
15299.25	100	11	0	0	25	11	3	9	0	0	0	stim004_stimuli_original_animals_birds_4.png	L	0	0	0	50.8304884000099	51.0304801000166
15399.25	100	12	0	0	25	12	6	15	0	1	0	stim007_stimuli_original_animals_fish_3.png	Y	0	0	0	51.2305279999855	51.4305253999773
15499.25	100	13	0	0	25	13	8	8	0	0	0	stim009_stimuli_original_vehicles_boats_1.png	K	0	0	0	51.6305458999705	51.8305358000216
15599.5	100	14	0	0	25	14	10	15	0	1	0	stim011_stimuli_original_vehicles_boats_3.png	Y	0	0	0	52.0307851000107	52.2305285999901
15699.25	100	15	0	0	25	15	9	2	0	0	0	stim010_stimuli_original_vehicles_boats_2.png	C	0	0	0	52.4305364000029	52.6305350000039
15799.25	100	16	0	0	25	16	13	14	0	0	0	stim014_stimuli_original_vehicles_planes_2.png	V	0	0	0	52.8305454999791	53.030543699977
15899.25	100	17	0	0	25	17	7	12	0	0	0	stim008_stimuli_original_animals_fish_4.png	T	0	0	0	53.2305555000203	53.4305556999752
15999.25	100	18	0	0	25	18	12	7	0	0	0	stim013_stimuli_original_vehicles_planes_1.png	J	0	0	0	53.6305719999946	53.8305646000081
16099.25	100	19	0	0	25	19	14	13	0	0	0	stim015_stimuli_original_vehicles_planes_3.png	U	f	54.0231429000269	0	54.030574799981	54.2305770000094
16199.25	100	20	0	0	25	20	2	9	0	0	0	stim003_stimuli_original_animals_birds_3.png	L	0	0	0	54.4305871999823	54.6305952999974
16299.25	100	21	0	0	25	21	15	10	1	0	0	stim016_stimuli_original_vehicles_planes_4.png	Q	0	0	0	54.8305994999828	55.0305980999838
16399.25	100	22	0	0	25	22	8	8	0	0	0	stim009_stimuli_original_vehicles_boats_1.png	K	0	0	0	55.2306119999848	55.4306119999965
16499.25	100	23	0	0	25	23	15	6	1	0	1	stim016_stimuli_original_vehicles_planes_4.png	G	0	0	0	55.6306197000085	55.8306172000011
16599.25	100	24	0	0	25	24	9	3	0	0	0	stim010_stimuli_original_vehicles_boats_2.png	D	f	56.222423499974	1	56.0306311000022	56.2306304000085
16699.25	100	25	0	0	25	25	3	10	0	1	0	stim004_stimuli_original_animals_birds_4.png	Q	0	0	0	56.4306423999951	56.6306430000113
16799.25	100	26	0	0	25	26	10	12	0	0	0	stim011_stimuli_original_vehicles_boats_3.png	T	0	0	0	56.8306510000257	57.0306521999883
16899.25	100	27	0	0	25	27	13	10	0	1	0	stim014_stimuli_original_vehicles_planes_2.png	Q	0	0	0	57.2306626000209	57.4306621999713
16999.25	100	28	0	0	25	28	7	4	0	0	0	stim008_stimuli_original_animals_fish_4.png	E	0	0	0	57.6306742000161	57.8306748999748
17099.25	100	29	0	0	25	29	5	0	0	0	0	stim006_stimuli_original_animals_fish_2.png	A	0	0	0	58.0306829999899	58.2306860000244
17199.25	100	30	0	0	25	30	11	2	0	0	0	stim012_stimuli_original_vehicles_boats_4.png	C	0	0	0	58.430695099989	58.6306946999975
17299.25	100	31	0	0	25	31	1	11	0	0	0	stim002_stimuli_original_animals_birds_2.png	R	0	0	0	58.830705499975	59.0307051999844
17399.25	100	32	0	0	25	32	0	15	0	0	0	stim001_stimuli_original_animals_birds_1.png	Y	0	0	0	59.2307166000246	59.4307168999803
17499.25	100	33	0	0	25	33	15	5	0	0	0	stim016_stimuli_original_vehicles_planes_4.png	F	0	0	0	59.6307273000129	59.8307275000261
17599.5	100	34	0	0	25	34	4	1	0	0	0	stim005_stimuli_original_animals_fish_1.png	B	0	0	0	60.0307412000257	60.2307430999936
17699.5	100	35	0	0	25	35	6	14	0	0	0	stim007_stimuli_original_animals_fish_3.png	V	0	0	0	60.4307478999835	60.630748399999
18432.75	100	36	1	1	13	0	5	7	0	0	0	stim006_stimuli_original_animals_fish_2.png	J	0	0	0	63.3641640999704	63.5641605000128
18532.75	100	37	1	1	13	1	3	6	0	0	0	stim004_stimuli_original_animals_birds_4.png	G	0	0	0	63.7641698999796	63.9641732000164
18632.75	100	38	1	1	13	2	1	2	0	0	0	stim002_stimuli_original_animals_birds_2.png	C	0	0	0	64.1641820999794	64.3641798999743
18732.75	100	39	1	1	13	3	4	5	0	0	0	stim005_stimuli_original_animals_fish_1.png	F	0	0	0	64.5641942999791	64.76421449997
18832.75	100	40	1	1	13	4	14	8	0	0	0	stim015_stimuli_original_vehicles_planes_3.png	K	0	0	0	64.9642026000074	65.1642076999997
18932.75	100	41	1	1	13	5	10	9	0	0	0	stim011_stimuli_original_vehicles_boats_3.png	L	0	0	0	65.3642126999912	65.5642140000127
19032.75	100	42	1	1	13	6	11	12	1	0	0	stim012_stimuli_original_vehicles_boats_4.png	T	0	0	0	65.7642305999761	65.9642263000133
19132.75	100	43	1	1	13	7	0	4	0	0	0	stim001_stimuli_original_animals_birds_1.png	E	0	0	0	66.1642335000215	66.364232300024
19232.75	100	44	1	1	13	8	11	8	1	1	0	stim012_stimuli_original_vehicles_boats_4.png	K	0	0	0	66.5642453000182	66.7642445000238
19332.75	100	45	1	1	13	9	13	11	0	0	0	stim014_stimuli_original_vehicles_planes_2.png	R	0	0	0	66.9642561000073	67.1642573999707
19432.75	100	46	1	1	13	10	15	8	0	1	1	stim016_stimuli_original_vehicles_planes_4.png	K	0	0	0	67.36429399997	67.5642680000165
19532.75	100	47	1	1	13	11	7	10	0	0	0	stim008_stimuli_original_animals_fish_4.png	Q	f	67.7568543999805	1	67.7642912999727	67.9642940000049
19632.75	100	48	1	1	13	12	6	0	0	0	0	stim007_stimuli_original_animals_fish_3.png	A	0	0	0	68.1642892999807	68.3642888999893
19732.75	100	49	1	1	13	13	2	1	0	0	0	stim003_stimuli_original_animals_birds_3.png	B	0	0	0	68.5642981000128	68.7643001999822
19832.75	100	50	1	1	13	14	9	13	0	0	0	stim010_stimuli_original_vehicles_boats_2.png	U	0	0	0	68.9643126999727	69.1643114999752
19932.75	100	51	1	1	13	15	8	14	0	0	0	stim009_stimuli_original_vehicles_boats_1.png	V	0	0	0	69.3643194999895	69.5643301000237
20032.75	100	52	1	1	13	16	12	15	0	0	0	stim013_stimuli_original_vehicles_planes_1.png	Y	0	0	0	69.7643308999832	69.9643562000128
20132.75	100	53	1	1	13	17	11	3	0	0	0	stim012_stimuli_original_vehicles_boats_4.png	D	0	0	0	70.1643433999852	70.3643454000121
20232.75	100	54	1	1	13	18	3	11	0	0	0	stim004_stimuli_original_animals_birds_4.png	R	0	0	0	70.5643727999995	70.7643536999822
20332.75	100	55	1	1	13	19	15	12	0	0	0	stim016_stimuli_original_vehicles_planes_4.png	T	0	0	0	70.9643663999741	71.1643658999819
20432.75	100	56	1	1	13	20	14	8	0	0	0	stim015_stimuli_original_vehicles_planes_3.png	K	0	0	0	71.3643750000047	71.5643756000209
20532.75	100	57	1	1	13	21	13	9	0	0	0	stim014_stimuli_original_vehicles_planes_2.png	L	0	0	0	71.7643851999892	71.9643841999932
20632.75	100	58	1	1	13	22	1	2	0	0	0	stim002_stimuli_original_animals_birds_2.png	C	0	0	0	72.1643966999836	72.3643968999968
20732.75	100	59	1	1	13	23	0	6	0	0	0	stim001_stimuli_original_animals_birds_1.png	G	0	0	0	72.5644197000074	72.7644097000011
20832.75	100	60	1	1	13	24	10	7	0	0	0	stim011_stimuli_original_vehicles_boats_3.png	J	0	0	0	72.9644167000079	73.1644295000006
20932.75	100	61	1	1	13	25	8	15	1	0	0	stim009_stimuli_original_vehicles_boats_1.png	Y	0	0	0	73.3644273999962	73.5644308999763
21032.75	100	62	1	1	13	26	11	13	0	0	0	stim012_stimuli_original_vehicles_boats_4.png	U	0	0	0	73.7644438999705	73.9644377999939
21132.75	100	63	1	1	13	27	8	11	1	1	0	stim009_stimuli_original_vehicles_boats_1.png	R	0	0	0	74.1644506999874	74.3644498999929
21232.75	100	64	1	1	13	28	4	0	0	0	0	stim005_stimuli_original_animals_fish_1.png	A	0	0	0	74.5644603000255	74.7644975999719
21332.75	100	65	1	1	13	29	12	11	0	1	1	stim013_stimuli_original_vehicles_planes_1.png	R	0	0	0	74.9644694000017	75.1645093000261
21432.75	100	66	1	1	13	30	9	10	0	0	0	stim010_stimuli_original_vehicles_boats_2.png	Q	f	75.3571637999848	1	75.3644841000205	75.5644819000154
21532.75	100	67	1	1	13	31	8	14	0	0	0	stim009_stimuli_original_vehicles_boats_1.png	V	0	0	0	75.7645191000192	75.9645203999826
21632.75	100	68	1	1	13	32	5	4	0	0	0	stim006_stimuli_original_animals_fish_2.png	E	0	0	0	76.1645417999825	76.3645357000059
21732.75	100	69	1	1	13	33	2	1	0	0	0	stim003_stimuli_original_animals_birds_3.png	B	0	0	0	76.5645293000271	76.7645451999852
21832.75	100	70	1	1	13	34	6	3	0	0	0	stim007_stimuli_original_animals_fish_3.png	D	0	0	0	76.9645569999702	77.1645558999735
21932.75	100	71	1	1	13	35	7	5	0	0	0	stim008_stimuli_original_animals_fish_4.png	F	0	0	0	77.3645658000023	77.5645507000154
22641.25	100	72	2	0	15	0	14	13	0	0	0	stim015_stimuli_original_vehicles_planes_3.png	U	0	0	0	80.1979871999938	80.3979792000027
22741.25	100	73	2	0	15	1	11	15	0	0	0	stim012_stimuli_original_vehicles_boats_4.png	Y	0	0	0	80.5979920999962	80.7979858000181
22841.25	100	74	2	0	15	2	12	7	0	0	0	stim013_stimuli_original_vehicles_planes_1.png	J	0	0	0	80.9980148000177	81.19798300002
22941.25	100	75	2	0	15	3	4	0	0	0	0	stim005_stimuli_original_animals_fish_1.png	A	f	81.589792600018	0	81.3980054000276	81.5980039000278
23041.25	100	76	2	0	15	4	9	6	0	0	0	stim010_stimuli_original_vehicles_boats_2.png	G	0	0	0	81.7980164000182	81.9980132000055
23141.25	100	77	2	0	15	5	3	1	0	0	0	stim004_stimuli_original_animals_birds_4.png	B	0	0	0	82.198028600018	82.3980274000205
23241.25	100	78	2	0	15	6	2	10	0	0	0	stim003_stimuli_original_animals_birds_3.png	Q	0	0	0	82.5980368999881	82.7980384000111
23341.25	100	79	2	0	15	7	9	14	1	0	0	stim010_stimuli_original_vehicles_boats_2.png	V	0	0	0	82.9980456000194	83.1980544999824
23441.25	100	80	2	0	15	8	5	2	0	0	0	stim006_stimuli_original_animals_fish_2.png	C	0	0	0	83.3980608999846	83.5980624000076
23541.25	100	81	2	0	15	9	9	12	1	0	1	stim010_stimuli_original_vehicles_boats_2.png	T	0	0	0	83.7980576999835	83.9980678000138
23641.25	100	82	2	0	15	10	7	7	0	1	0	stim008_stimuli_original_animals_fish_4.png	J	0	0	0	84.1980796999997	84.3980784000014
23741.25	100	83	2	0	15	11	8	8	0	0	0	stim009_stimuli_original_vehicles_boats_1.png	K	0	0	0	84.5980928000063	84.7980927000172
23841.25	100	84	2	0	15	12	6	7	0	1	0	stim007_stimuli_original_animals_fish_3.png	J	0	0	0	84.9981018999824	85.1981000999804
23941.25	100	85	2	0	15	13	1	9	0	0	0	stim002_stimuli_original_animals_birds_2.png	L	0	0	0	85.3980933999992	85.5981160000083
24041.25	100	86	2	0	15	14	13	5	0	0	0	stim014_stimuli_original_vehicles_planes_2.png	F	0	0	0	85.7981387000182	85.9981094999821
24141.25	100	87	2	0	15	15	10	11	0	0	0	stim011_stimuli_original_vehicles_boats_3.png	R	0	0	0	86.1981339000049	86.3981340000173
24241.25	100	88	2	0	15	16	15	3	0	0	0	stim016_stimuli_original_vehicles_planes_4.png	D	0	0	0	86.5981409000233	86.7981437999988
24341.25	100	89	2	0	15	17	0	4	0	0	0	stim001_stimuli_original_animals_birds_1.png	E	0	0	0	86.9981559999869	87.1981438000221
24441.25	100	90	2	0	15	18	4	0	0	0	0	stim005_stimuli_original_animals_fish_1.png	A	0	0	0	87.3981671999791	87.5981639000238
24541.25	100	91	2	0	15	19	3	15	0	0	0	stim004_stimuli_original_animals_birds_4.png	Y	0	0	0	87.798174399999	87.9981743000099
24641.25	100	92	2	0	15	20	11	10	0	0	0	stim012_stimuli_original_vehicles_boats_4.png	Q	0	0	0	88.1981911999756	88.3981861000066
24741.25	100	93	2	0	15	21	5	13	0	0	0	stim006_stimuli_original_animals_fish_2.png	U	0	0	0	88.5981946000247	88.7981959999888
24841.25	100	94	2	0	15	22	9	1	0	0	0	stim010_stimuli_original_vehicles_boats_2.png	B	0	0	0	88.9982074999716	89.1981953000068
24941.25	100	95	2	0	15	23	7	6	1	0	0	stim008_stimuli_original_animals_fish_4.png	G	0	0	0	89.3982175000128	89.598217300023
25041.25	100	96	2	0	15	24	8	8	0	0	0	stim009_stimuli_original_vehicles_boats_1.png	K	f	89.7908068000106	0	89.7982302000164	89.9982318999828
25141.25	100	97	2	0	15	25	7	7	1	0	1	stim008_stimuli_original_animals_fish_4.png	J	0	0	0	90.1982492000097	90.3982448999886
25241.25	100	98	2	0	15	26	12	9	0	1	0	stim013_stimuli_original_vehicles_planes_1.png	L	0	0	0	90.5982255000272	90.7982507999986
25341.25	100	99	2	0	15	27	2	5	0	0	0	stim003_stimuli_original_animals_birds_3.png	F	0	0	0	90.9982621999807	91.1982492000097
25441.25	100	100	2	0	15	28	14	9	0	1	0	stim015_stimuli_original_vehicles_planes_3.png	L	0	0	0	91.3982721000211	91.5982707000221
25541.25	100	101	2	0	15	29	10	2	0	0	0	stim011_stimuli_original_vehicles_boats_3.png	C	f	91.7908784999745	1	91.7982807999942	91.9982823000173
25641.25	100	102	2	0	15	30	1	3	0	0	0	stim002_stimuli_original_animals_birds_2.png	D	0	0	0	92.1982838999829	92.3982987999916
25741.25	100	103	2	0	15	31	6	9	0	0	0	stim007_stimuli_original_animals_fish_3.png	L	0	0	0	92.5983038999839	92.7983037999948
25841.25	100	104	2	0	15	32	0	4	0	0	0	stim001_stimuli_original_animals_birds_1.png	E	0	0	0	92.998313500022	93.1983160999953
25941.25	100	105	2	0	15	33	7	12	0	0	0	stim008_stimuli_original_animals_fish_4.png	T	0	0	0	93.3983290999895	93.598325399973
26041.25	100	106	2	0	15	34	15	11	0	0	0	stim016_stimuli_original_vehicles_planes_4.png	R	0	0	0	93.7983424999984	93.9983358000172
26141.25	100	107	2	0	15	35	13	14	0	0	0	stim014_stimuli_original_vehicles_planes_2.png	V	0	0	0	94.1983473	94.3983476000139
27033	100	108	3	1	7	0	3	11	0	0	0	stim004_stimuli_original_animals_birds_4.png	R	0	0	0	97.7651154000196	97.965111700003
27133	100	109	3	1	7	1	1	15	0	0	0	stim002_stimuli_original_animals_birds_2.png	Y	0	0	0	98.1651264000102	98.365125500015
27233	100	110	3	1	7	2	4	14	0	0	0	stim005_stimuli_original_animals_fish_1.png	V	0	0	0	98.565134399978	98.765135900001
27333	100	111	3	1	7	3	8	8	0	0	0	stim009_stimuli_original_vehicles_boats_1.png	K	0	0	0	98.9651499000029	99.1651434000232
27433	100	112	3	1	7	4	9	2	0	0	0	stim010_stimuli_original_vehicles_boats_2.png	C	0	0	0	99.3651572000235	99.56517050002
27533	100	113	3	1	7	5	15	9	0	0	0	stim016_stimuli_original_vehicles_planes_4.png	L	0	0	0	99.7651714999811	99.9651748000178
27633	100	114	3	1	7	6	6	0	0	0	0	stim007_stimuli_original_animals_fish_3.png	A	0	0	0	100.165171200002	100.365172300022
27733	100	115	3	1	7	7	13	7	0	0	0	stim014_stimuli_original_vehicles_planes_2.png	J	0	0	0	100.565184100007	100.765185499971
27833	100	116	3	1	7	8	10	1	0	1	0	stim011_stimuli_original_vehicles_boats_3.png	B	0	0	0	100.965190900024	101.1651939
27933	100	117	3	1	7	9	11	12	0	0	0	stim012_stimuli_original_vehicles_boats_4.png	T	0	0	0	101.365205799986	101.565206500003
28033	100	118	3	1	7	10	4	1	1	1	1	stim005_stimuli_original_animals_fish_1.png	B	0	0	0	101.765216999978	101.965211400006
28133	100	119	3	1	7	11	12	5	0	0	0	stim013_stimuli_original_vehicles_planes_1.png	F	0	0	0	102.165236099972	102.365241000021
28233	100	120	3	1	7	12	4	6	1	0	0	stim005_stimuli_original_animals_fish_1.png	G	0	0	0	102.565242299985	102.765248699987
28333	100	121	3	1	7	13	0	10	0	0	0	stim001_stimuli_original_animals_birds_1.png	Q	0	0	0	102.965261399979	103.165255
28433	100	122	3	1	7	14	5	3	0	0	0	stim006_stimuli_original_animals_fish_2.png	D	0	0	0	103.36526489997	103.565263799974
28533	100	123	3	1	7	15	2	4	0	0	0	stim003_stimuli_original_animals_birds_3.png	E	0	0	0	103.765276900027	103.96528449998
28633	100	124	3	1	7	16	14	1	0	0	0	stim015_stimuli_original_vehicles_planes_3.png	B	0	0	0	104.165286400006	104.365284900006
28733	100	125	3	1	7	17	7	13	0	0	0	stim008_stimuli_original_animals_fish_4.png	U	0	0	0	104.565296699991	104.765318399994
28833	100	126	3	1	7	18	13	7	0	0	0	stim014_stimuli_original_vehicles_planes_2.png	J	0	0	0	104.965312300017	105.165311900026
28933	100	127	3	1	7	19	1	14	0	0	0	stim002_stimuli_original_animals_birds_2.png	V	0	0	0	105.365318799973	105.565314300009
29033	100	128	3	1	7	20	4	2	0	0	0	stim005_stimuli_original_animals_fish_1.png	C	0	0	0	105.765320700011	105.965321599972
29133	100	129	3	1	7	21	3	5	0	0	0	stim004_stimuli_original_animals_birds_4.png	F	0	0	0	106.165356200014	106.365336699993
29233	100	130	3	1	7	22	10	0	0	0	0	stim011_stimuli_original_vehicles_boats_3.png	A	0	0	0	106.565341799986	106.765341999999
29333	100	131	3	1	7	23	6	4	0	1	0	stim007_stimuli_original_animals_fish_3.png	E	0	0	0	106.96534960001	107.165358999977
29433	100	132	3	1	7	24	5	12	0	0	0	stim006_stimuli_original_animals_fish_2.png	T	0	0	0	107.365372099972	107.565365599992
29533	100	133	3	1	7	25	1	4	1	1	1	stim002_stimuli_original_animals_birds_2.png	E	0	0	0	107.765376799973	107.965373400017
29633	100	134	3	1	7	26	12	11	0	0	0	stim013_stimuli_original_vehicles_planes_1.png	R	f	108.357179199986	1	108.165386000008	108.36539240001
29733	100	135	3	1	7	27	1	10	1	0	0	stim002_stimuli_original_animals_birds_2.png	Q	0	0	0	108.565403599991	108.765406700026
29833	100	136	3	1	7	28	7	13	0	0	0	stim008_stimuli_original_animals_fish_4.png	U	0	0	0	108.965416199993	109.165418800025
29933	100	137	3	1	7	29	0	6	0	0	0	stim001_stimuli_original_animals_birds_1.png	G	0	0	0	109.36542799999	109.565395499987
30033	100	138	3	1	7	30	9	15	0	0	0	stim010_stimuli_original_vehicles_boats_2.png	Y	0	0	0	109.765421700024	109.965450900025
30133	100	139	3	1	7	31	2	9	0	0	0	stim003_stimuli_original_animals_birds_3.png	L	0	0	0	110.165448000014	110.365448100027
30233	100	140	3	1	7	32	8	8	0	0	0	stim009_stimuli_original_vehicles_boats_1.png	K	0	0	0	110.565457599994	110.765457000001
30333	100	141	3	1	7	33	14	4	0	0	0	stim015_stimuli_original_vehicles_planes_3.png	E	0	0	0	110.965469799994	111.165452899993
30433	100	142	3	1	7	34	15	1	0	0	0	stim016_stimuli_original_vehicles_planes_4.png	B	0	0	0	111.365480099979	111.565447399975
30533	100	143	3	1	7	35	11	3	0	0	0	stim012_stimuli_original_vehicles_boats_4.png	D	0	0	0	111.765491999977	111.96549219999
31179	100	144	4	0	14	0	0	14	0	0	0	stim001_stimuli_original_animals_birds_1.png	V	0	0	0	114.348888500012	114.548884499993
31279	100	145	4	0	14	1	8	9	0	0	0	stim009_stimuli_original_vehicles_boats_1.png	L	0	0	0	114.748896899982	114.948901100026
31379	100	146	4	0	14	2	3	8	0	0	0	stim004_stimuli_original_animals_birds_4.png	K	0	0	0	115.148910899996	115.348908899992
31479	100	147	4	0	14	3	4	6	0	0	0	stim005_stimuli_original_animals_fish_1.png	G	0	0	0	115.548920099973	115.74890559999
31579	100	148	4	0	14	4	6	10	1	0	0	stim007_stimuli_original_animals_fish_3.png	Q	0	0	0	115.948932099971	116.148915899976
31679	100	149	4	0	14	5	15	0	0	0	0	stim016_stimuli_original_vehicles_planes_4.png	A	0	0	0	116.348932199995	116.548941500019
31779	100	150	4	0	14	6	6	15	1	0	1	stim007_stimuli_original_animals_fish_3.png	Y	0	0	0	116.748980399978	116.948956099979
31879	100	151	4	0	14	7	11	1	0	0	0	stim012_stimuli_original_vehicles_boats_4.png	B	0	0	0	117.148970299982	117.348989900027
31979	100	152	4	0	14	8	5	2	0	0	0	stim006_stimuli_original_animals_fish_2.png	C	0	0	0	117.548975799989	117.748978400021
32079	100	153	4	0	14	9	7	7	0	0	0	stim008_stimuli_original_animals_fish_4.png	J	0	0	0	117.948987299984	118.148984299973
32179	100	154	4	0	14	10	1	12	0	0	0	stim002_stimuli_original_animals_birds_2.png	T	0	0	0	118.348996700021	118.548998599988
32279	100	155	4	0	14	11	13	1	0	1	0	stim014_stimuli_original_vehicles_planes_2.png	B	0	0	0	118.74900760001	118.948969800025
32379	100	156	4	0	14	12	9	11	0	0	0	stim010_stimuli_original_vehicles_boats_2.png	R	0	0	0	119.149016299983	119.349021399976
32479	100	157	4	0	14	13	14	1	0	1	0	stim015_stimuli_original_vehicles_planes_3.png	B	0	0	0	119.549027399975	119.749027999991
32579	100	158	4	0	14	14	6	3	0	0	0	stim007_stimuli_original_animals_fish_3.png	D	0	0	0	119.949039299972	120.149040699995
32679	100	159	4	0	14	15	2	13	0	0	0	stim003_stimuli_original_animals_birds_3.png	U	0	0	0	120.349050500023	120.549049999972
32779	100	160	4	0	14	16	12	4	0	0	0	stim013_stimuli_original_vehicles_planes_1.png	E	0	0	0	120.749060800008	120.9490582
32879	100	161	4	0	14	17	10	5	0	0	0	stim011_stimuli_original_vehicles_boats_3.png	F	0	0	0	121.149080600007	121.349075299979
32979	100	162	4	0	14	18	5	10	0	0	0	stim006_stimuli_original_animals_fish_2.png	Q	0	0	0	121.54905989999	121.74907999998
33079	100	163	4	0	14	19	4	12	0	0	0	stim005_stimuli_original_animals_fish_1.png	T	0	0	0	121.949091500021	122.149081500014
33179	100	164	4	0	14	20	13	2	0	0	0	stim014_stimuli_original_vehicles_planes_2.png	C	0	0	0	122.349102800013	122.549103100027
33279	100	165	4	0	14	21	3	6	0	0	0	stim004_stimuli_original_animals_birds_4.png	G	0	0	0	122.749113800004	122.949117299984
33379	100	166	4	0	14	22	1	14	1	0	0	stim002_stimuli_original_animals_birds_2.png	V	0	0	0	123.149123799987	123.349126200017
33479	100	167	4	0	14	23	11	9	0	0	0	stim012_stimuli_original_vehicles_boats_4.png	L	0	0	0	123.549139600014	123.74913750001
33579	100	168	4	0	14	24	1	13	1	0	1	stim002_stimuli_original_animals_birds_2.png	U	0	0	0	123.949145600025	124.149158500019
33679	100	169	4	0	14	25	12	1	0	0	0	stim013_stimuli_original_vehicles_planes_1.png	B	f	124.341779600014	1	124.349154299998	124.549154100008
33779	100	170	4	0	14	26	7	7	0	0	0	stim008_stimuli_original_animals_fish_4.png	J	0	0	0	124.749168300012	124.949164999998
33879	100	171	4	0	14	27	2	5	0	0	0	stim003_stimuli_original_animals_birds_3.png	F	0	0	0	125.149188400013	125.349178500008
33979	100	172	4	0	14	28	1	11	0	0	0	stim002_stimuli_original_animals_birds_2.png	R	0	0	0	125.549191800004	125.749184900022
34079	100	173	4	0	14	29	15	6	0	1	0	stim016_stimuli_original_vehicles_planes_4.png	G	0	0	0	125.949195199995	126.149196200015
34179	100	174	4	0	14	30	0	15	0	0	0	stim001_stimuli_original_animals_birds_1.png	Y	0	0	0	126.349182899983	126.549205099989
34279	100	175	4	0	14	31	10	6	0	1	0	stim011_stimuli_original_vehicles_boats_3.png	G	0	0	0	126.749213500007	126.949216499983
34379	100	176	4	0	14	32	6	4	0	0	0	stim007_stimuli_original_animals_fish_3.png	E	0	0	0	127.149232700001	127.349238700001
34479	100	177	4	0	14	33	8	3	0	0	0	stim009_stimuli_original_vehicles_boats_1.png	D	0	0	0	127.549238600011	127.749242899998
34579	100	178	4	0	14	34	9	8	0	0	0	stim010_stimuli_original_vehicles_boats_2.png	K	0	0	0	127.949252700026	128.149250300019
34679	100	179	4	0	14	35	14	0	0	0	0	stim015_stimuli_original_vehicles_planes_3.png	A	0	0	0	128.349260099989	128.549263000023
35412.25	100	180	5	1	45	0	8	15	0	0	0	stim009_stimuli_original_vehicles_boats_1.png	Y	0	0	0	131.282663799997	131.482659599977
35512.25	100	181	5	1	45	1	12	11	0	0	0	stim013_stimuli_original_vehicles_planes_1.png	R	0	0	0	131.682699700003	131.882661600015
35612.25	100	182	5	1	45	2	15	10	0	0	0	stim016_stimuli_original_vehicles_planes_4.png	Q	0	0	0	132.082671099983	132.282690000022
35712.25	100	183	5	1	45	3	7	0	0	0	0	stim008_stimuli_original_animals_fish_4.png	A	0	0	0	132.482682199974	132.68269440002
35812.25	100	184	5	1	45	4	10	12	0	0	0	stim011_stimuli_original_vehicles_boats_3.png	T	0	0	0	132.88269280002	133.082693199976
35912.25	100	185	5	1	45	5	13	5	0	0	0	stim014_stimuli_original_vehicles_planes_2.png	F	0	0	0	133.282704500016	133.482702800015
36012.25	100	186	5	1	45	6	9	1	1	0	0	stim010_stimuli_original_vehicles_boats_2.png	B	0	0	0	133.682715300005	133.882712599996
36112.25	100	187	5	1	45	7	6	8	0	0	0	stim007_stimuli_original_animals_fish_3.png	K	0	0	0	134.082723999978	134.282756600005
36212.25	100	188	5	1	45	8	9	2	1	0	0	stim010_stimuli_original_vehicles_boats_2.png	C	0	0	0	134.482735399972	134.68273499998
36312.25	100	189	5	1	45	9	1	4	0	0	0	stim002_stimuli_original_animals_birds_2.png	E	0	0	0	134.882762999972	135.082746499975
36412.25	100	190	5	1	45	10	4	6	0	1	0	stim005_stimuli_original_animals_fish_1.png	G	0	0	0	135.28276089998	135.482761599997
36512.25	100	191	5	1	45	11	3	14	0	0	0	stim004_stimuli_original_animals_birds_4.png	V	0	0	0	135.682769000006	135.882768500014
36612.25	100	192	5	1	45	12	2	6	0	1	1	stim003_stimuli_original_animals_birds_3.png	G	0	0	0	136.082784599974	136.282780400012
36712.25	100	193	5	1	45	13	9	3	0	0	0	stim010_stimuli_original_vehicles_boats_2.png	D	0	0	0	136.482788799971	136.68278979999
36812.25	100	194	5	1	45	14	5	13	0	0	0	stim006_stimuli_original_animals_fish_2.png	U	f	137.074608099996	1	136.882814900018	137.082807499974
36912.25	100	195	5	1	45	15	14	6	0	0	0	stim015_stimuli_original_vehicles_planes_3.png	G	0	0	0	137.282812200021	137.482810800022
37012.25	100	196	5	1	45	16	0	9	0	0	0	stim001_stimuli_original_animals_birds_1.png	L	0	0	0	137.682821399998	137.88282150001
37112.25	100	197	5	1	45	17	11	7	0	0	0	stim012_stimuli_original_vehicles_boats_4.png	J	0	0	0	138.0828339	138.282834400015
37212.25	100	198	5	1	45	18	7	11	0	0	0	stim008_stimuli_original_animals_fish_4.png	R	0	0	0	138.48284219997	138.682843699993
37312.25	100	199	5	1	45	19	9	0	0	0	0	stim010_stimuli_original_vehicles_boats_2.png	A	0	0	0	138.88285569998	139.082870099985
37412.25	100	200	5	1	45	20	6	14	0	0	0	stim007_stimuli_original_animals_fish_3.png	V	0	0	0	139.282864700013	139.482866699982
37512.25	100	201	5	1	45	21	13	5	0	0	0	stim014_stimuli_original_vehicles_planes_2.png	F	0	0	0	139.682875600003	139.882875400013
37612.25	100	202	5	1	45	22	3	9	0	0	0	stim004_stimuli_original_animals_birds_4.png	L	0	0	0	140.082890600024	140.282886800007
37712.25	100	203	5	1	45	23	6	2	1	0	0	stim007_stimuli_original_animals_fish_3.png	C	0	0	0	140.482898699993	140.682896599988
37812.25	100	204	5	1	45	24	14	3	0	0	0	stim015_stimuli_original_vehicles_planes_3.png	D	0	0	0	140.882906500017	141.082906100026
37912.25	100	205	5	1	45	25	6	4	1	0	0	stim007_stimuli_original_animals_fish_3.png	E	0	0	0	141.282917600009	141.482918200025
38012.5	100	206	5	1	45	26	4	1	0	0	0	stim005_stimuli_original_animals_fish_1.png	B	0	0	0	141.682956199977	141.882928400009
38112.25	100	207	5	1	45	27	2	9	0	1	0	stim003_stimuli_original_animals_birds_3.png	L	0	0	0	142.082940499997	142.282957000018
38212.25	100	208	5	1	45	28	8	6	0	0	0	stim009_stimuli_original_vehicles_boats_1.png	G	0	0	0	142.482951299986	142.682961800019
38312.25	100	209	5	1	45	29	1	9	0	1	1	stim002_stimuli_original_animals_birds_2.png	L	0	0	0	142.882961899973	143.08296119998
38412.5	100	210	5	1	45	30	5	13	0	0	0	stim006_stimuli_original_animals_fish_2.png	U	f	143.474796299997	1	143.282973500027	143.48297479999
38512.5	100	211	5	1	45	31	12	10	0	0	0	stim013_stimuli_original_vehicles_planes_1.png	Q	0	0	0	143.68298350001	143.882982800016
38612.5	100	212	5	1	45	32	0	7	0	0	0	stim001_stimuli_original_animals_birds_1.png	J	0	0	0	144.082995100005	144.283016100002
38712.5	100	213	5	1	45	33	10	15	0	0	0	stim011_stimuli_original_vehicles_boats_3.png	Y	0	0	0	144.483004699985	144.683004999999
38812.5	100	214	5	1	45	34	11	12	0	0	0	stim012_stimuli_original_vehicles_boats_4.png	T	0	0	0	144.883020300011	145.083015099983
38912.5	100	215	5	1	45	35	15	8	0	0	0	stim016_stimuli_original_vehicles_planes_4.png	K	0	0	0	145.283026700024	145.483027399983
39758.25	100	216	6	0	43	0	13	11	0	0	0	stim014_stimuli_original_vehicles_planes_2.png	R	0	0	0	148.666455099999	148.866450199974
39858.25	100	217	6	0	43	1	6	1	0	0	0	stim007_stimuli_original_animals_fish_3.png	B	0	0	0	149.066463200026	149.266463899985
39958.25	100	218	6	0	43	2	9	15	0	0	0	stim010_stimuli_original_vehicles_boats_2.png	Y	0	0	0	149.466471299995	149.666471700009
40058.25	100	219	6	0	43	3	4	0	0	0	0	stim005_stimuli_original_animals_fish_1.png	A	0	0	0	149.866482699988	150.066484100011
40158.25	100	220	6	0	43	4	7	3	0	0	0	stim008_stimuli_original_animals_fish_4.png	D	0	0	0	150.2664964	150.466498999973
40258.25	100	221	6	0	43	5	2	6	0	0	0	stim003_stimuli_original_animals_birds_3.png	G	0	0	0	150.666523899999	150.866502400022
40358.25	100	222	6	0	43	6	10	14	1	0	0	stim011_stimuli_original_vehicles_boats_3.png	V	0	0	0	151.066514300008	151.266516299977
40458.25	100	223	6	0	43	7	5	13	0	0	0	stim006_stimuli_original_animals_fish_2.png	U	0	0	0	151.466525700002	151.666525500012
40558.25	100	224	6	0	43	8	10	12	1	0	1	stim011_stimuli_original_vehicles_boats_3.png	T	0	0	0	151.866536799993	152.066536300001
40658.25	100	225	6	0	43	9	8	10	0	0	0	stim009_stimuli_original_vehicles_boats_1.png	Q	0	0	0	152.26655130001	152.466547399992
40758.25	100	226	6	0	43	10	3	4	0	0	0	stim004_stimuli_original_animals_birds_4.png	E	0	0	0	152.666556100012	152.866558199981
40858.25	100	227	6	0	43	11	0	7	0	0	0	stim001_stimuli_original_animals_birds_1.png	J	0	0	0	153.066569500021	153.266569399973
40958.25	100	228	6	0	43	12	10	14	0	1	0	stim011_stimuli_original_vehicles_boats_3.png	V	0	0	0	153.466581400018	153.66658010002
41058.25	100	229	6	0	43	13	11	5	0	0	0	stim012_stimuli_original_vehicles_boats_4.png	F	0	0	0	153.866592800012	154.066589599999
41158.25	100	230	6	0	43	14	12	14	0	1	0	stim013_stimuli_original_vehicles_planes_1.png	V	0	0	0	154.266603399999	154.466601799999
41258.25	100	231	6	0	43	15	15	9	0	0	0	stim016_stimuli_original_vehicles_planes_4.png	L	0	0	0	154.666612699977	154.86661029997
41358.25	100	232	6	0	43	16	14	8	0	0	0	stim015_stimuli_original_vehicles_planes_3.png	K	0	0	0	155.066622300015	155.266623199976
41458.25	100	233	6	0	43	17	1	2	0	0	0	stim002_stimuli_original_animals_birds_2.png	C	0	0	0	155.4666325	155.666632800014
41558.25	100	234	6	0	43	18	2	1	0	0	0	stim003_stimuli_original_animals_birds_3.png	B	0	0	0	155.866644499998	156.06664450001
41658.25	100	235	6	0	43	19	8	14	0	0	0	stim009_stimuli_original_vehicles_boats_1.png	V	0	0	0	156.26666199998	156.466655700002
41758.25	100	236	6	0	43	20	9	15	0	0	0	stim010_stimuli_original_vehicles_boats_2.png	Y	0	0	0	156.66666659998	156.866666899994
41858.25	100	237	6	0	43	21	14	12	1	0	0	stim015_stimuli_original_vehicles_planes_3.png	T	0	0	0	157.066684500023	157.266690100019
41958.25	100	238	6	0	43	22	5	11	0	0	0	stim006_stimuli_original_animals_fish_2.png	R	0	0	0	157.466693800001	157.666691899998
42058.25	100	239	6	0	43	23	14	10	1	0	1	stim015_stimuli_original_vehicles_planes_3.png	Q	0	0	0	157.866721500002	158.066709199979
42158.25	100	240	6	0	43	24	7	0	0	0	0	stim008_stimuli_original_animals_fish_4.png	A	0	0	0	158.266722899978	158.466718900017
42258.25	100	241	6	0	43	25	4	3	0	0	0	stim005_stimuli_original_animals_fish_1.png	D	f	158.858525399992	1	158.666728899989	158.866735099989
42358.25	100	242	6	0	43	26	10	8	0	0	0	stim011_stimuli_original_vehicles_boats_3.png	K	0	0	0	159.066743700008	159.266741900006
42458.25	100	243	6	0	43	27	12	10	0	1	0	stim013_stimuli_original_vehicles_planes_1.png	Q	0	0	0	159.46675089997	159.666752799996
42558.25	100	244	6	0	43	28	13	5	0	0	0	stim014_stimuli_original_vehicles_planes_2.png	F	0	0	0	159.866791100008	160.066763699986
42658.25	100	245	6	0	43	29	14	10	0	1	0	stim015_stimuli_original_vehicles_planes_3.png	Q	0	0	0	160.266776799981	160.466773200023
42758.25	100	246	6	0	43	30	6	2	0	0	0	stim007_stimuli_original_animals_fish_3.png	C	0	0	0	160.666785800015	160.866785900027
42858.25	100	247	6	0	43	31	3	7	0	0	0	stim004_stimuli_original_animals_birds_4.png	J	0	0	0	161.066793399979	161.266798100027
42958.25	100	248	6	0	43	32	0	4	0	0	0	stim001_stimuli_original_animals_birds_1.png	E	0	0	0	161.466804799973	161.666807100002
43058.25	100	249	6	0	43	33	15	9	0	0	0	stim016_stimuli_original_vehicles_planes_4.png	L	0	0	0	161.866816500027	162.066818299994
43158.25	100	250	6	0	43	34	1	6	0	0	0	stim002_stimuli_original_animals_birds_2.png	G	0	0	0	162.266828500025	162.466828199977
43258.25	100	251	6	0	43	35	11	13	0	0	0	stim012_stimuli_original_vehicles_boats_4.png	U	0	0	0	162.666837800003	162.866839200025
44004.25	100	252	7	1	41	0	12	12	0	0	0	stim013_stimuli_original_vehicles_planes_1.png	T	0	0	0	165.650257800007	165.85025269998
44104.25	100	253	7	1	41	1	1	7	0	0	0	stim002_stimuli_original_animals_birds_2.png	J	0	0	0	166.0502615	166.250249499979
44204.25	100	254	7	1	41	2	0	10	0	0	0	stim001_stimuli_original_animals_birds_1.png	Q	0	0	0	166.450261500024	166.650276499975
44304.25	100	255	7	1	41	3	5	6	0	0	0	stim006_stimuli_original_animals_fish_2.png	G	0	0	0	166.850285099994	167.050304799981
44404.25	100	256	7	1	41	4	4	15	1	0	0	stim005_stimuli_original_animals_fish_1.png	Y	0	0	0	167.250315700017	167.450315500028
44504.25	100	257	7	1	41	5	14	11	0	1	0	stim015_stimuli_original_vehicles_planes_3.png	R	0	0	0	167.650328000018	167.850327000022
44604.25	100	258	7	1	41	6	4	13	1	0	0	stim005_stimuli_original_animals_fish_1.png	U	0	0	0	168.050339500012	168.250342199986
44704.25	100	259	7	1	41	7	10	11	0	1	1	stim011_stimuli_original_vehicles_boats_3.png	R	0	0	0	168.450342299999	168.650341700006
44804.25	100	260	7	1	41	8	3	1	0	0	0	stim004_stimuli_original_animals_birds_4.png	B	0	0	0	168.850352499983	169.05035580002
44904.25	100	261	7	1	41	9	8	5	0	0	0	stim009_stimuli_original_vehicles_boats_1.png	F	f	169.242940499971	1	169.250364999985	169.45036279998
45004.25	100	262	7	1	41	10	11	4	0	0	0	stim012_stimuli_original_vehicles_boats_4.png	E	0	0	0	169.650377199985	169.8503776
45104.25	100	263	7	1	41	11	2	11	0	0	0	stim003_stimuli_original_animals_birds_3.png	R	0	0	0	170.050384100003	170.250372299983
45204.25	100	264	7	1	41	12	9	0	0	0	0	stim010_stimuli_original_vehicles_boats_2.png	A	0	0	0	170.450400399975	170.650393499993
45304.25	100	265	7	1	41	13	6	8	0	0	0	stim007_stimuli_original_animals_fish_3.png	K	0	0	0	170.85040689999	171.05041939998
45404.25	100	266	7	1	41	14	13	9	0	0	0	stim014_stimuli_original_vehicles_planes_2.png	L	0	0	0	171.250424999977	171.450424899987
45504.25	100	267	7	1	41	15	7	2	0	0	0	stim008_stimuli_original_animals_fish_4.png	C	0	0	0	171.650433000003	171.850435199973
45604.25	100	268	7	1	41	16	15	3	0	0	0	stim016_stimuli_original_vehicles_planes_4.png	D	0	0	0	172.050444599998	172.250451200001
45704.25	100	269	7	1	41	17	4	14	0	0	0	stim005_stimuli_original_animals_fish_1.png	V	0	0	0	172.450459400017	172.650456600008
45804.25	100	270	7	1	41	18	14	4	0	0	0	stim015_stimuli_original_vehicles_planes_3.png	E	0	0	0	172.85046799999	173.050465699984
45904.25	100	271	7	1	41	19	3	15	0	0	0	stim004_stimuli_original_animals_birds_4.png	Y	0	0	0	173.25048029999	173.450459400017
46004.25	100	272	7	1	41	20	2	7	0	0	0	stim003_stimuli_original_animals_birds_3.png	J	0	0	0	173.650485599996	173.850489599979
46104.25	100	273	7	1	41	21	9	13	0	0	0	stim010_stimuli_original_vehicles_boats_2.png	U	0	0	0	174.050498700002	174.2505045
46204.25	100	274	7	1	41	22	8	6	0	0	0	stim009_stimuli_original_vehicles_boats_1.png	G	0	0	0	174.450509999995	174.650509900006
46304.25	100	275	7	1	41	23	0	9	0	0	0	stim001_stimuli_original_animals_birds_1.png	L	0	0	0	174.850523700006	175.050519399985
46404.25	100	276	7	1	41	24	11	2	0	0	0	stim012_stimuli_original_vehicles_boats_4.png	C	0	0	0	175.25053010002	175.450529899972
46504.25	100	277	7	1	41	25	4	11	0	0	0	stim005_stimuli_original_animals_fish_1.png	R	0	0	0	175.650543499971	175.850539600011
46604.25	100	278	7	1	41	26	5	8	0	0	0	stim006_stimuli_original_animals_fish_2.png	K	0	0	0	176.050552000001	176.250552300015
46704.25	100	279	7	1	41	27	1	3	0	0	0	stim002_stimuli_original_animals_birds_2.png	D	0	0	0	176.450562299986	176.6505626
46804.25	100	280	7	1	41	28	11	10	1	0	0	stim012_stimuli_original_vehicles_boats_4.png	Q	0	0	0	176.850575199991	177.050578200025
46904.25	100	281	7	1	41	29	13	4	0	1	0	stim014_stimuli_original_vehicles_planes_2.png	E	0	0	0	177.250582100009	177.450584299979
47004.25	100	282	7	1	41	30	11	14	1	0	0	stim012_stimuli_original_vehicles_boats_4.png	V	0	0	0	177.6505932	177.850595499971
47104.25	100	283	7	1	41	31	15	4	0	1	1	stim016_stimuli_original_vehicles_planes_4.png	E	0	0	0	178.050604199991	178.250605800014
47204.25	100	284	7	1	41	32	6	5	0	0	0	stim007_stimuli_original_animals_fish_3.png	F	0	0	0	178.450619700016	178.650614599988
47304.25	100	285	7	1	41	33	10	0	0	0	0	stim011_stimuli_original_vehicles_boats_3.png	A	f	178.84320459998	1	178.850627599983	179.050626699987
47404.25	100	286	7	1	41	34	7	1	0	0	0	stim008_stimuli_original_animals_fish_4.png	B	0	0	0	179.250637000019	179.450639099989
47504.25	100	287	7	1	41	35	12	12	0	0	0	stim013_stimuli_original_vehicles_planes_1.png	T	0	0	0	179.6506467	179.850647700019
49241.75	100	288	8	0	2	0	3	8	0	0	0	stim004_stimuli_original_animals_birds_4.png	K	0	0	0	186.600837300008	186.800829900021
49341.75	100	289	8	0	2	1	1	3	0	0	0	stim002_stimuli_original_animals_birds_2.png	D	0	0	0	187.000843000016	187.200845599989
49441.75	100	290	8	0	2	2	4	7	0	0	0	stim005_stimuli_original_animals_fish_1.png	J	0	0	0	187.400851899991	187.600851800002
49541.75	100	291	8	0	2	3	13	10	0	0	0	stim014_stimuli_original_vehicles_planes_2.png	Q	0	0	0	187.800841299992	188.000864400005
49641.75	100	292	8	0	2	4	0	9	0	0	0	stim001_stimuli_original_animals_birds_1.png	L	0	0	0	188.200881399971	188.400858799985
49741.75	100	293	8	0	2	5	2	12	0	1	0	stim003_stimuli_original_animals_birds_3.png	T	0	0	0	188.600883800013	188.800867300015
49841.75	100	294	8	0	2	6	5	5	1	0	0	stim006_stimuli_original_animals_fish_2.png	F	0	0	0	189.000894600002	189.200897499977
49941.75	100	295	8	0	2	7	12	12	0	1	0	stim013_stimuli_original_vehicles_planes_1.png	T	0	0	0	189.400907600007	189.600890800008
50041.75	100	296	8	0	2	8	5	13	1	0	1	stim006_stimuli_original_animals_fish_2.png	U	0	0	0	189.800914500025	190.000918300007
50141.75	100	297	8	0	2	9	10	14	0	0	0	stim011_stimuli_original_vehicles_boats_3.png	V	d	190.20941000001	1	190.200925100013	190.400926999981
50241.75	100	298	8	0	2	10	6	1	0	0	0	stim007_stimuli_original_animals_fish_3.png	B	0	0	0	190.600911099988	190.800916399981
50341.75	100	299	8	0	2	11	7	6	0	0	0	stim008_stimuli_original_animals_fish_4.png	G	0	0	0	191.000941400009	191.200935499975
50441.75	100	300	8	0	2	12	5	15	0	0	0	stim006_stimuli_original_animals_fish_2.png	Y	0	0	0	191.400941499975	191.600942399993
50541.75	100	301	8	0	2	13	8	11	0	0	0	stim009_stimuli_original_vehicles_boats_1.png	R	0	0	0	191.80095200002	192.000951400027
50641.75	100	302	8	0	2	14	15	12	0	0	0	stim016_stimuli_original_vehicles_planes_4.png	T	0	0	0	192.20096300001	192.400962000014
50741.75	100	303	8	0	2	15	11	0	0	0	0	stim012_stimuli_original_vehicles_boats_4.png	A	0	0	0	192.600979999988	192.8009724
50841.75	100	304	8	0	2	16	14	4	0	0	0	stim015_stimuli_original_vehicles_planes_3.png	E	0	0	0	193.001016800001	193.200987600023
50941.75	100	305	8	0	2	17	9	2	0	0	0	stim010_stimuli_original_vehicles_boats_2.png	C	0	0	0	193.400985200016	193.60100319999
51041.75	100	306	8	0	2	18	2	9	0	0	0	stim003_stimuli_original_animals_birds_3.png	L	0	0	0	193.800993499986	194.000994500006
51141.75	100	307	8	0	2	19	4	14	0	0	0	stim005_stimuli_original_animals_fish_1.png	V	0	0	0	194.201007900003	194.401006300002
51241.75	100	308	8	0	2	20	0	11	0	0	0	stim001_stimuli_original_animals_birds_1.png	R	0	0	0	194.601016399974	194.801015499979
51341.75	100	309	8	0	2	21	12	15	0	0	0	stim013_stimuli_original_vehicles_planes_1.png	Y	0	0	0	195.001026700018	195.201029899996
51441.75	100	310	8	0	2	22	11	8	0	0	0	stim012_stimuli_original_vehicles_boats_4.png	K	0	0	0	195.40105049999	195.601061000023
51541.75	100	311	8	0	2	23	15	5	0	0	0	stim016_stimuli_original_vehicles_planes_4.png	F	0	0	0	195.801061799983	196.001058500027
51641.75	100	312	8	0	2	24	6	7	0	0	0	stim007_stimuli_original_animals_fish_3.png	J	0	0	0	196.201072599972	196.401071499975
51741.75	100	313	8	0	2	25	1	6	0	0	0	stim002_stimuli_original_animals_birds_2.png	G	0	0	0	196.601080399996	196.801080800011
51841.75	100	314	8	0	2	26	14	10	0	0	0	stim015_stimuli_original_vehicles_planes_3.png	Q	0	0	0	197.001092799997	197.201093900017
51942	100	315	8	0	2	27	13	5	0	1	0	stim014_stimuli_original_vehicles_planes_2.png	F	0	0	0	197.401104699995	197.601102299988
52041.75	100	316	8	0	2	28	12	12	1	0	0	stim013_stimuli_original_vehicles_planes_1.png	T	0	0	0	197.801096800016	198.00112500001
52142	100	317	8	0	2	29	5	5	0	1	0	stim006_stimuli_original_animals_fish_2.png	F	0	0	0	198.201127399981	198.401123800024
52242	100	318	8	0	2	30	12	2	1	0	1	stim013_stimuli_original_vehicles_planes_1.png	C	0	0	0	198.6011344	198.801134300011
52342	100	319	8	0	2	31	9	0	0	0	0	stim010_stimuli_original_vehicles_boats_2.png	A	0	0	0	199.001145899994	199.201148600026
52442	100	320	8	0	2	32	10	13	0	0	0	stim011_stimuli_original_vehicles_boats_3.png	U	0	0	0	199.401158299996	199.60114839999
52542	100	321	8	0	2	33	7	4	0	0	0	stim008_stimuli_original_animals_fish_4.png	E	0	0	0	199.801156900008	200.001154700003
52642	100	322	8	0	2	34	3	1	0	0	0	stim004_stimuli_original_animals_birds_4.png	B	0	0	0	200.20116669999	200.401194799982
52742	100	323	8	0	2	35	8	3	0	0	0	stim009_stimuli_original_vehicles_boats_1.png	D	0	0	0	200.601178899989	200.801175599976
53492	100	324	9	1	47	0	10	5	0	0	0	stim011_stimuli_original_vehicles_boats_3.png	F	0	0	0	203.601287600002	203.801284799993
53592	100	325	9	1	47	1	5	4	0	0	0	stim006_stimuli_original_animals_fish_2.png	E	0	0	0	204.001293300011	204.201295999985
53692	100	326	9	1	47	2	9	13	0	0	0	stim010_stimuli_original_vehicles_boats_2.png	U	0	0	0	204.401304800005	204.601307699981
53792	100	327	9	1	47	3	8	11	0	0	0	stim009_stimuli_original_vehicles_boats_1.png	R	0	0	0	204.801322499989	205.001319999981
53892	100	328	9	1	47	4	7	0	0	0	0	stim008_stimuli_original_animals_fish_4.png	A	0	0	0	205.201330500015	205.401329500019
53992	100	329	9	1	47	5	11	9	0	1	0	stim012_stimuli_original_vehicles_boats_4.png	L	0	0	0	205.601340299996	205.801339199999
54092	100	330	9	1	47	6	3	8	0	0	0	stim004_stimuli_original_animals_birds_4.png	K	0	0	0	206.001363400021	206.201355100027
54192	100	331	9	1	47	7	0	9	0	1	1	stim001_stimuli_original_animals_birds_1.png	L	0	0	0	206.401361799974	206.601362299989
54292	100	332	9	1	47	8	13	10	0	0	0	stim014_stimuli_original_vehicles_planes_2.png	Q	d	206.793930399988	1	206.801378900011	207.001374099986
54392	100	333	9	1	47	9	1	3	0	0	0	stim002_stimuli_original_animals_birds_2.png	D	0	0	0	207.201386399975	207.401383400022
54492	100	334	9	1	47	10	3	12	1	0	0	stim004_stimuli_original_animals_birds_4.png	T	0	0	0	207.601392499986	207.801397399977
54592	100	335	9	1	47	11	2	6	0	0	0	stim003_stimuli_original_animals_birds_3.png	G	0	0	0	208.001403599977	208.201405800006
54692	100	336	9	1	47	12	3	14	1	0	0	stim004_stimuli_original_animals_birds_4.png	V	0	0	0	208.401403600001	208.601413799974
54792	100	337	9	1	47	13	15	7	0	0	0	stim016_stimuli_original_vehicles_planes_4.png	J	0	0	0	208.80141830002	209.001426299976
54892	100	338	9	1	47	14	12	1	0	0	0	stim013_stimuli_original_vehicles_planes_1.png	B	0	0	0	209.201437700016	209.401436900022
54992	100	339	9	1	47	15	4	2	0	0	0	stim005_stimuli_original_animals_fish_1.png	C	0	0	0	209.601449000009	209.801449600025
55092	100	340	9	1	47	16	14	9	0	0	0	stim015_stimuli_original_vehicles_planes_3.png	L	0	0	0	210.001460700005	210.201464999991
55192	100	341	9	1	47	17	6	15	0	0	0	stim007_stimuli_original_animals_fish_3.png	Y	0	0	0	210.401469999983	210.60146949999
55292	100	342	9	1	47	18	15	6	0	0	0	stim016_stimuli_original_vehicles_planes_4.png	G	0	0	0	210.801476599998	211.001481799991
55392	100	343	9	1	47	19	9	14	0	0	0	stim010_stimuli_original_vehicles_boats_2.png	V	0	0	0	211.201490900014	211.40148890001
55492	100	344	9	1	47	20	2	4	0	0	0	stim003_stimuli_original_animals_birds_3.png	E	0	0	0	211.6015013	211.801503200026
55592	100	345	9	1	47	21	1	12	0	0	0	stim002_stimuli_original_animals_birds_2.png	T	0	0	0	212.001515900018	212.201515899971
55692	100	346	9	1	47	22	7	15	0	0	0	stim008_stimuli_original_animals_fish_4.png	Y	0	0	0	212.401521800028	212.601523299993
55792	100	347	9	1	47	23	14	3	0	1	0	stim015_stimuli_original_vehicles_planes_3.png	D	0	0	0	212.801532200014	213.001533699979
55892	100	348	9	1	47	24	6	2	0	0	0	stim007_stimuli_original_animals_fish_3.png	C	0	0	0	213.201545700023	213.401569899986
55992	100	349	9	1	47	25	12	3	0	1	1	stim013_stimuli_original_vehicles_planes_1.png	D	0	0	0	213.601542300021	213.801558699983
56092	100	350	9	1	47	26	3	1	0	0	0	stim004_stimuli_original_animals_birds_4.png	B	0	0	0	214.001565199986	214.201566300006
56192	100	351	9	1	47	27	10	13	0	0	0	stim011_stimuli_original_vehicles_boats_3.png	U	d	214.394128200016	1	214.40157799999	214.601576699992
56292	100	352	9	1	47	28	9	0	1	0	0	stim010_stimuli_original_vehicles_boats_2.png	A	0	0	0	214.801589999988	215.001584700018
56392	100	353	9	1	47	29	8	3	0	0	0	stim009_stimuli_original_vehicles_boats_1.png	D	0	0	0	215.201601599983	215.401583499974
56492	100	354	9	1	47	30	9	11	1	0	0	stim010_stimuli_original_vehicles_boats_2.png	R	0	0	0	215.601637099986	215.801595399971
56592	100	355	9	1	47	31	0	7	0	0	0	stim001_stimuli_original_animals_birds_1.png	J	0	0	0	216.001625299978	216.201622000022
56692	100	356	9	1	47	32	11	8	0	0	0	stim012_stimuli_original_vehicles_boats_4.png	K	0	0	0	216.401631899993	216.601631099998
56792	100	357	9	1	47	33	13	9	0	0	0	stim014_stimuli_original_vehicles_planes_2.png	L	0	0	0	216.80164369999	217.001640399976
56892	100	358	9	1	47	34	4	5	0	0	0	stim005_stimuli_original_animals_fish_1.png	F	0	0	0	217.201636000013	217.401634900016
56992	100	359	9	1	47	35	5	10	0	0	0	stim006_stimuli_original_animals_fish_2.png	Q	0	0	0	217.601672300021	217.801669500011
57879.5	100	360	10	0	35	0	0	6	0	0	0	stim001_stimuli_original_animals_birds_1.png	G	0	0	0	221.151781600027	221.351760199992
57979.5	100	361	10	0	35	1	2	7	0	0	0	stim003_stimuli_original_animals_birds_3.png	J	0	0	0	221.55178139999	221.751768000016
58079.5	100	362	10	0	35	2	3	4	0	0	0	stim004_stimuli_original_animals_birds_4.png	E	0	0	0	221.951780100004	222.151782399975
58179.5	100	363	10	0	35	3	14	3	0	0	0	stim015_stimuli_original_vehicles_planes_3.png	D	0	0	0	222.351790299988	222.551791200007
58279.5	100	364	10	0	35	4	8	1	0	0	0	stim009_stimuli_original_vehicles_boats_1.png	B	0	0	0	222.751798400015	222.951798400027
58379.5	100	365	10	0	35	5	12	13	1	0	0	stim013_stimuli_original_vehicles_planes_1.png	U	0	0	0	223.151814299985	223.351810100023
58479.5	100	366	10	0	35	6	1	14	0	0	0	stim002_stimuli_original_animals_birds_2.png	V	0	0	0	223.551826299983	223.751835800009
58579.5	100	367	10	0	35	7	12	0	1	0	1	stim013_stimuli_original_vehicles_planes_1.png	A	0	0	0	223.95183570002	224.15183789999
58679.5	100	368	10	0	35	8	5	15	0	0	0	stim006_stimuli_original_animals_fish_2.png	Y	0	0	0	224.351841699972	224.551844700007
58779.5	100	369	10	0	35	9	9	10	0	0	0	stim010_stimuli_original_vehicles_boats_2.png	Q	0	0	0	224.75185499998	224.951858100016
58879.5	100	370	10	0	35	10	6	12	0	0	0	stim007_stimuli_original_animals_fish_3.png	T	0	0	0	225.151838199992	225.351862200012
58979.5	100	371	10	0	35	11	12	2	0	0	0	stim013_stimuli_original_vehicles_planes_1.png	C	0	0	0	225.551874700002	225.751872699999
59079.5	100	372	10	0	35	12	4	15	0	1	0	stim005_stimuli_original_animals_fish_1.png	Y	0	0	0	225.95188930002	226.151877800003
59179.5	100	373	10	0	35	13	11	11	0	0	0	stim012_stimuli_original_vehicles_boats_4.png	R	0	0	0	226.351894600026	226.551894299977
59279.5	100	374	10	0	35	14	10	15	0	1	0	stim011_stimuli_original_vehicles_boats_3.png	Y	0	0	0	226.751917199988	226.951906999981
59379.5	100	375	10	0	35	15	7	5	0	0	0	stim008_stimuli_original_animals_fish_4.png	F	0	0	0	227.151919100026	227.35192310001
59479.5	100	376	10	0	35	16	13	9	0	0	0	stim014_stimuli_original_vehicles_planes_2.png	L	0	0	0	227.551926299988	227.751930199971
59579.5	100	377	10	0	35	17	15	8	0	0	0	stim016_stimuli_original_vehicles_planes_4.png	K	0	0	0	227.951939599996	228.151939400006
59679.5	100	378	10	0	35	18	8	15	0	0	0	stim009_stimuli_original_vehicles_boats_1.png	Y	0	0	0	228.351951399993	228.551948399981
59779.5	100	379	10	0	35	19	9	13	0	0	0	stim010_stimuli_original_vehicles_boats_2.png	U	0	0	0	228.751948899997	228.951969099988
59879.5	100	380	10	0	35	20	5	7	0	0	0	stim006_stimuli_original_animals_fish_2.png	J	0	0	0	229.151979200018	229.351981099986
59979.5	100	381	10	0	35	21	15	10	1	0	0	stim016_stimuli_original_vehicles_planes_4.png	Q	0	0	0	229.551990700013	229.751991000026
60079.5	100	382	10	0	35	22	11	11	0	0	0	stim012_stimuli_original_vehicles_boats_4.png	R	0	0	0	229.951998299977	230.152003899973
60179.5	100	383	10	0	35	23	15	4	1	0	1	stim016_stimuli_original_vehicles_planes_4.png	E	0	0	0	230.352013199998	230.552013400011
60279.5	100	384	10	0	35	24	2	12	0	0	0	stim003_stimuli_original_animals_birds_3.png	T	0	0	0	230.752022299974	230.952003800019
60379.5	100	385	10	0	35	25	12	6	0	0	0	stim013_stimuli_original_vehicles_planes_1.png	G	d	231.144632700016	1	231.152032800019	231.352048299974
60479.5	100	386	10	0	35	26	10	9	0	0	0	stim011_stimuli_original_vehicles_boats_3.png	L	0	0	0	231.552044200012	231.752041
60579.5	100	387	10	0	35	27	15	5	0	0	0	stim016_stimuli_original_vehicles_planes_4.png	F	0	0	0	231.952056800015	232.152058499982
60679.5	100	388	10	0	35	28	0	12	0	1	0	stim001_stimuli_original_animals_birds_1.png	T	0	0	0	232.352066599997	232.552065299999
60779.5	100	389	10	0	35	29	14	1	0	0	0	stim015_stimuli_original_vehicles_planes_3.png	B	0	0	0	232.752075000026	232.952081699972
60879.5	100	390	10	0	35	30	13	12	0	1	0	stim014_stimuli_original_vehicles_planes_2.png	T	0	0	0	233.152087500028	233.352090800006
60979.5	100	391	10	0	35	31	1	8	0	0	0	stim002_stimuli_original_animals_birds_2.png	K	0	0	0	233.552099899971	233.752097100019
61079.5	100	392	10	0	35	32	3	14	0	0	0	stim004_stimuli_original_animals_birds_4.png	V	0	0	0	233.952111400024	234.152098399994
61179.5	100	393	10	0	35	33	4	3	0	0	0	stim005_stimuli_original_animals_fish_1.png	D	0	0	0	234.352117299975	234.552118199994
61279.5	100	394	10	0	35	34	7	2	0	0	0	stim008_stimuli_original_animals_fish_4.png	C	d	234.744790899975	0	234.752130499983	234.952118500019
61379.5	100	395	10	0	35	35	6	0	0	0	0	stim007_stimuli_original_animals_fish_3.png	A	0	0	0	235.15213599999	235.352133899985
62096.25	100	396	11	1	42	0	6	6	0	0	0	stim007_stimuli_original_animals_fish_3.png	G	0	0	0	238.018877699971	238.21888
62196.25	100	397	11	1	42	1	9	9	0	0	0	stim010_stimuli_original_vehicles_boats_2.png	L	0	0	0	238.418886400003	238.618890699989
62296.25	100	398	11	1	42	2	12	14	0	0	0	stim013_stimuli_original_vehicles_planes_1.png	V	0	0	0	238.818897799996	239.018898000009
62396.25	100	399	11	1	42	3	11	1	0	0	0	stim012_stimuli_original_vehicles_boats_4.png	B	0	0	0	239.218908199982	239.418914499984
62496.25	100	400	11	1	42	4	0	3	1	0	0	stim001_stimuli_original_animals_birds_1.png	D	0	0	0	239.61891770002	239.818928299996
62596.25	100	401	11	1	42	5	2	15	0	0	0	stim003_stimuli_original_animals_birds_3.png	Y	0	0	0	240.018944900017	240.218929500028
62696.25	100	402	11	1	42	6	0	0	1	0	0	stim001_stimuli_original_animals_birds_1.png	A	0	0	0	240.418943100027	240.618939000007
62796.25	100	403	11	1	42	7	4	8	0	0	0	stim005_stimuli_original_animals_fish_1.png	K	0	0	0	240.818952000001	241.018955599982
62896.25	100	404	11	1	42	8	5	7	0	1	0	stim006_stimuli_original_animals_fish_2.png	J	0	0	0	241.218962999992	241.418960499985
62996.25	100	405	11	1	42	9	1	4	0	0	0	stim002_stimuli_original_animals_birds_2.png	E	0	0	0	241.618972799974	241.818971699977
63096.25	100	406	11	1	42	10	7	7	0	1	1	stim008_stimuli_original_animals_fish_4.png	J	0	0	0	242.018963599985	242.218982300023
63196.25	100	407	11	1	42	11	10	2	0	0	0	stim011_stimuli_original_vehicles_boats_3.png	C	d	242.610779999988	1	242.418993600004	242.619001300016
63296.25	100	408	11	1	42	12	8	13	0	0	0	stim009_stimuli_original_vehicles_boats_1.png	U	0	0	0	242.819004899997	243.0190038
63396.25	100	409	11	1	42	13	0	11	0	0	0	stim001_stimuli_original_animals_birds_1.png	R	0	0	0	243.219015699986	243.419015199994
63496.25	100	410	11	1	42	14	13	10	0	0	0	stim014_stimuli_original_vehicles_planes_2.png	Q	0	0	0	243.619027899986	243.819031900028
63596.25	100	411	11	1	42	15	14	7	0	0	0	stim015_stimuli_original_vehicles_planes_3.png	J	0	0	0	244.019037900027	244.219041200005
63696.25	100	412	11	1	42	16	3	12	0	0	0	stim004_stimuli_original_animals_birds_4.png	T	0	0	0	244.419047000003	244.619023000007
63796.25	100	413	11	1	42	17	15	5	0	0	0	stim016_stimuli_original_vehicles_planes_4.png	F	0	0	0	244.81906389998	245.019058700011
63896.25	100	414	11	1	42	18	5	15	0	0	0	stim006_stimuli_original_animals_fish_2.png	Y	0	0	0	245.219081400021	245.419079200015
63996.25	100	415	11	1	42	19	12	3	0	0	0	stim013_stimuli_original_vehicles_planes_1.png	D	0	0	0	245.619080999983	245.819080699992
64096.25	100	416	11	1	42	20	7	14	0	0	0	stim008_stimuli_original_animals_fish_4.png	V	0	0	0	246.019091899972	246.219090199971
64196.25	100	417	11	1	42	21	10	13	0	0	0	stim011_stimuli_original_vehicles_boats_3.png	U	0	0	0	246.419100600004	246.619107300008
64296.25	100	418	11	1	42	22	11	0	0	0	0	stim012_stimuli_original_vehicles_boats_4.png	A	0	0	0	246.819104599999	247.019112200011
64396.25	100	419	11	1	42	23	13	8	0	0	0	stim014_stimuli_original_vehicles_planes_2.png	K	0	0	0	247.219124399999	247.419122399995
64496.25	100	420	11	1	42	24	2	10	0	0	0	stim003_stimuli_original_animals_birds_3.png	Q	0	0	0	247.619133899978	247.819135900005
64596.25	100	421	11	1	42	25	7	7	1	0	0	stim008_stimuli_original_animals_fish_4.png	J	0	0	0	248.019145599974	248.219134200015
64696.25	100	422	11	1	42	26	4	1	0	0	0	stim005_stimuli_original_animals_fish_1.png	B	0	0	0	248.419154800009	248.619156699977
64796.25	100	423	11	1	42	27	7	5	1	0	0	stim008_stimuli_original_animals_fish_4.png	F	0	0	0	248.819166300003	249.019168699975
64896.25	100	424	11	1	42	28	8	4	0	0	0	stim009_stimuli_original_vehicles_boats_1.png	E	0	0	0	249.219177999999	249.419171100017
64996.25	100	425	11	1	42	29	0	0	0	1	0	stim001_stimuli_original_animals_birds_1.png	A	0	0	0	249.619187099976	249.819192300027
65096.25	100	426	11	1	42	30	15	2	0	0	0	stim016_stimuli_original_vehicles_planes_4.png	C	0	0	0	250.019209699996	250.219203000015
65196.25	100	427	11	1	42	31	3	0	0	1	1	stim004_stimuli_original_animals_birds_4.png	A	0	0	0	250.419207700004	250.619212199992
65296.25	100	428	11	1	42	32	1	11	0	0	0	stim002_stimuli_original_animals_birds_2.png	R	0	0	0	250.819220900012	251.019225199998
65396.25	100	429	11	1	42	33	14	12	0	0	0	stim015_stimuli_original_vehicles_planes_3.png	T	d	251.211864300014	1	251.219233300013	251.419230600004
65496.5	100	430	11	1	42	34	9	9	0	0	0	stim010_stimuli_original_vehicles_boats_2.png	L	0	0	0	251.619246100017	251.819242600002
65596.25	100	431	11	1	42	35	6	6	0	0	0	stim007_stimuli_original_animals_fish_3.png	G	0	0	0	252.01922919997	252.21925189998
66625.5	100	432	12	0	40	0	10	7	0	0	0	stim011_stimuli_original_vehicles_boats_3.png	J	0	0	0	256.136035599979	256.336014100001
66725.5	100	433	12	0	40	1	0	2	0	0	0	stim001_stimuli_original_animals_birds_1.png	C	0	0	0	256.536017299979	256.736034000001
66825.5	100	434	12	0	40	2	8	10	0	0	0	stim009_stimuli_original_vehicles_boats_1.png	Q	0	0	0	256.936028799973	257.136037699995
66925.5	100	435	12	0	40	3	1	11	0	0	0	stim002_stimuli_original_animals_birds_2.png	R	0	0	0	257.33603950002	257.536037300015
67025.5	100	436	12	0	40	4	6	9	0	0	0	stim007_stimuli_original_animals_fish_3.png	L	0	0	0	257.736053499975	257.93605389999
67125.5	100	437	12	0	40	5	7	8	1	0	0	stim008_stimuli_original_animals_fish_4.png	K	0	0	0	258.136060999997	258.336060900008
67225.5	100	438	12	0	40	6	9	5	0	0	0	stim010_stimuli_original_vehicles_boats_2.png	F	0	0	0	258.53607089998	258.736073700013
67325.5	100	439	12	0	40	7	7	4	1	0	1	stim008_stimuli_original_animals_fish_4.png	E	0	0	0	258.936081400025	259.136080899974
67425.5	100	440	12	0	40	8	5	11	0	1	0	stim006_stimuli_original_animals_fish_2.png	R	0	0	0	259.336108600022	259.536096299998
67525.5	100	441	12	0	40	9	14	13	0	0	0	stim015_stimuli_original_vehicles_planes_3.png	U	0	0	0	259.736103100004	259.936103800021
67625.5	100	442	12	0	40	10	4	11	0	1	0	stim005_stimuli_original_animals_fish_1.png	R	0	0	0	260.136115800007	260.336115500017
67725.5	100	443	12	0	40	11	12	6	0	0	0	stim013_stimuli_original_vehicles_planes_1.png	G	0	0	0	260.536125699989	260.7361255
67825.5	100	444	12	0	40	12	3	0	0	0	0	stim004_stimuli_original_animals_birds_4.png	A	0	0	0	260.936148100009	261.13613910001
67925.5	100	445	12	0	40	13	2	15	0	0	0	stim003_stimuli_original_animals_birds_3.png	Y	d	261.328744600003	0	261.336161200015	261.536148299987
68025.5	100	446	12	0	40	14	11	12	0	0	0	stim012_stimuli_original_vehicles_boats_4.png	T	0	0	0	261.736159100023	261.93615829997
68125.5	100	447	12	0	40	15	7	3	0	0	0	stim008_stimuli_original_animals_fish_4.png	D	0	0	0	262.136167899997	262.336169200018
68225.5	100	448	12	0	40	16	13	1	0	0	0	stim014_stimuli_original_vehicles_planes_2.png	B	0	0	0	262.536178599985	262.736179200001
68325.5	100	449	12	0	40	17	15	14	0	0	0	stim016_stimuli_original_vehicles_planes_4.png	V	0	0	0	262.93619019998	263.136190399993
68425.5	100	450	12	0	40	18	14	15	0	0	0	stim015_stimuli_original_vehicles_planes_3.png	Y	0	0	0	263.336200100021	263.536236200016
68525.5	100	451	12	0	40	19	1	13	0	0	0	stim002_stimuli_original_animals_birds_2.png	U	0	0	0	263.736211300013	263.936211100023
68625.5	100	452	12	0	40	20	3	7	0	0	0	stim004_stimuli_original_animals_birds_4.png	J	0	0	0	264.136223400012	264.336227299995
68725.5	100	453	12	0	40	21	12	11	0	0	0	stim013_stimuli_original_vehicles_planes_1.png	R	0	0	0	264.536234700005	264.736233200005
68825.5	100	454	12	0	40	22	15	2	0	0	0	stim016_stimuli_original_vehicles_planes_4.png	C	0	0	0	264.936242699972	265.136243699992
68925.5	100	455	12	0	40	23	0	3	0	0	0	stim001_stimuli_original_animals_birds_1.png	D	0	0	0	265.336254500027	265.53625439998
69025.5	100	456	12	0	40	24	6	12	0	0	0	stim007_stimuli_original_animals_fish_3.png	T	0	0	0	265.736263500003	265.936266199977
69125.75	100	457	12	0	40	25	11	4	1	0	0	stim012_stimuli_original_vehicles_boats_4.png	E	0	0	0	266.136303399981	266.336275500013
69225.75	100	458	12	0	40	26	13	14	0	0	0	stim014_stimuli_original_vehicles_planes_2.png	V	0	0	0	266.536292799981	266.736303500016
69325.75	100	459	12	0	40	27	11	5	1	0	1	stim012_stimuli_original_vehicles_boats_4.png	F	0	0	0	266.936297999986	267.136310799979
69425.75	100	460	12	0	40	28	4	7	0	1	0	stim005_stimuli_original_animals_fish_1.png	J	0	0	0	267.33630710002	267.536307499977
69525.75	100	461	12	0	40	29	5	9	0	0	0	stim006_stimuli_original_animals_fish_2.png	L	d	267.943343500025	1	267.736322499986	267.936318800028
69625.75	100	462	12	0	40	30	8	7	0	1	0	stim009_stimuli_original_vehicles_boats_1.png	J	0	0	0	268.136357699987	268.336358500004
69725.75	100	463	12	0	40	31	9	6	0	0	0	stim010_stimuli_original_vehicles_boats_2.png	G	0	0	0	268.536352400028	268.73637519998
69825.75	100	464	12	0	40	32	11	1	0	0	0	stim012_stimuli_original_vehicles_boats_4.png	B	0	0	0	268.936379600025	269.136376500013
69925.75	100	465	12	0	40	33	10	8	0	0	0	stim011_stimuli_original_vehicles_boats_3.png	K	0	0	0	269.336396500003	269.536392199981
70025.75	100	466	12	0	40	34	2	0	0	0	0	stim003_stimuli_original_animals_birds_3.png	A	0	0	0	269.736401500006	269.936399600003
70125.75	100	467	12	0	40	35	7	10	0	0	0	stim008_stimuli_original_animals_fish_4.png	Q	0	0	0	270.136421400006	270.336411700002
70746.5	100	468	13	1	27	0	2	7	0	0	0	stim003_stimuli_original_animals_birds_3.png	J	0	0	0	272.619811400014	272.819805999985
70846.5	100	469	13	1	27	1	8	0	0	0	0	stim009_stimuli_original_vehicles_boats_1.png	A	0	0	0	273.019818599976	273.219819899998
70946.5	100	470	13	1	27	2	3	10	0	0	0	stim004_stimuli_original_animals_birds_4.png	Q	0	0	0	273.419834900007	273.619833900011
71046.5	100	471	13	1	27	3	1	3	0	0	0	stim002_stimuli_original_animals_birds_2.png	D	0	0	0	273.819819000026	274.019845800009
71146.5	100	472	13	1	27	4	6	6	0	0	0	stim007_stimuli_original_animals_fish_3.png	G	0	0	0	274.21985449997	274.419840599992
71246.5	100	473	13	1	27	5	5	9	0	0	0	stim006_stimuli_original_animals_fish_2.png	L	0	0	0	274.619868399983	274.819864800025
71346.5	100	474	13	1	27	6	14	4	0	1	0	stim015_stimuli_original_vehicles_planes_3.png	E	0	0	0	275.019874599995	275.219875500014
71446.5	100	475	13	1	27	7	11	12	0	0	0	stim012_stimuli_original_vehicles_boats_4.png	T	0	0	0	275.419883799972	275.619888400019
71546.5	100	476	13	1	27	8	15	4	0	1	1	stim016_stimuli_original_vehicles_planes_4.png	E	0	0	0	275.819894200016	276.019888899988
71646.5	100	477	13	1	27	9	12	11	0	0	0	stim013_stimuli_original_vehicles_planes_1.png	R	0	0	0	276.219910899992	276.419921600027
71746.5	100	478	13	1	27	10	11	2	1	0	0	stim012_stimuli_original_vehicles_boats_4.png	C	0	0	0	276.619920799974	276.819918999972
71846.5	100	479	13	1	27	11	13	8	0	0	0	stim014_stimuli_original_vehicles_planes_2.png	K	0	0	0	277.019927199988	277.219928000006
71946.5	100	480	13	1	27	12	11	4	1	0	0	stim012_stimuli_original_vehicles_boats_4.png	E	0	0	0	277.419936300023	277.619938299991
72046.5	100	481	13	1	27	13	10	1	0	0	0	stim011_stimuli_original_vehicles_boats_3.png	B	0	0	0	277.819952499995	278.019958199991
72146.5	100	482	13	1	27	14	4	13	0	0	0	stim005_stimuli_original_animals_fish_1.png	U	0	0	0	278.219948399987	278.419940099993
72246.5	100	483	13	1	27	15	9	14	0	0	0	stim010_stimuli_original_vehicles_boats_2.png	V	0	0	0	278.619945999992	278.819987200026
72346.5	100	484	13	1	27	16	7	15	0	0	0	stim008_stimuli_original_animals_fish_4.png	Y	0	0	0	279.020005700004	279.22000630002
72446.5	100	485	13	1	27	17	0	5	0	0	0	stim001_stimuli_original_animals_birds_1.png	F	0	0	0	279.419995500008	279.620004000026
72546.5	100	486	13	1	27	18	5	0	0	0	0	stim006_stimuli_original_animals_fish_2.png	A	0	0	0	279.81999280001	280.020009699976
72646.5	100	487	13	1	27	19	15	7	0	0	0	stim016_stimuli_original_vehicles_planes_4.png	J	0	0	0	280.220011500001	280.420009699999
72746.5	100	488	13	1	27	20	14	9	0	0	0	stim015_stimuli_original_vehicles_planes_3.png	L	0	0	0	280.620024700009	280.820027499984
72846.5	100	489	13	1	27	21	13	4	0	0	0	stim014_stimuli_original_vehicles_planes_2.png	E	0	0	0	281.020035699999	281.220034900005
72946.5	100	490	13	1	27	22	1	10	0	0	0	stim002_stimuli_original_animals_birds_2.png	Q	0	0	0	281.420042500016	281.620041200018
73046.5	100	491	13	1	27	23	4	11	0	1	0	stim005_stimuli_original_animals_fish_1.png	R	0	0	0	281.820065699983	282.020053900022
73146.5	100	492	13	1	27	24	8	13	0	0	0	stim009_stimuli_original_vehicles_boats_1.png	U	0	0	0	282.220067100017	282.420065700018
73246.5	100	493	13	1	27	25	2	11	0	1	1	stim003_stimuli_original_animals_birds_3.png	R	0	0	0	282.620076299994	282.820073999988
73346.5	100	494	13	1	27	26	11	12	0	0	0	stim012_stimuli_original_vehicles_boats_4.png	T	0	0	0	283.020086899982	283.22009279998
73446.5	100	495	13	1	27	27	4	15	1	0	0	stim005_stimuli_original_animals_fish_1.png	Y	d	283.611889799999	1	283.420100799995	283.620097499981
73546.5	100	496	13	1	27	28	12	11	0	0	0	stim013_stimuli_original_vehicles_planes_1.png	R	0	0	0	283.820088699984	284.020116899977
73646.5	100	497	13	1	27	29	4	14	1	0	0	stim005_stimuli_original_animals_fish_1.png	V	0	0	0	284.220114599972	284.420108899998
73746.5	100	498	13	1	27	30	9	5	0	0	0	stim010_stimuli_original_vehicles_boats_2.png	F	0	0	0	284.62011790002	284.820117300027
73846.5	100	499	13	1	27	31	6	6	0	0	0	stim007_stimuli_original_animals_fish_3.png	G	0	0	0	285.020133099984	285.220131099981
73946.5	100	500	13	1	27	32	3	1	0	0	0	stim004_stimuli_original_animals_birds_4.png	B	0	0	0	285.420141200011	285.620141500025
74046.5	100	501	13	1	27	33	10	3	0	0	0	stim011_stimuli_original_vehicles_boats_3.png	D	0	0	0	285.820150499989	286.020152200013
74146.5	100	502	13	1	27	34	0	8	0	0	0	stim001_stimuli_original_animals_birds_1.png	K	0	0	0	286.220164099999	286.420162299997
74246.5	100	503	13	1	27	35	7	2	0	0	0	stim008_stimuli_original_animals_fish_4.png	C	0	0	0	286.620174199983	286.820171299973
76038.25	100	504	14	0	36	0	6	13	0	0	0	stim007_stimuli_original_animals_fish_3.png	U	0	0	0	293.787049599981	293.987043300003
76138.25	100	505	14	0	36	1	9	11	0	0	0	stim010_stimuli_original_vehicles_boats_2.png	R	0	0	0	294.187055399991	294.387054799998
76238.25	100	506	14	0	36	2	12	9	0	0	0	stim013_stimuli_original_vehicles_planes_1.png	L	0	0	0	294.587064100022	294.787069800019
76338.25	100	507	14	0	36	3	2	6	0	0	0	stim003_stimuli_original_animals_birds_3.png	G	0	0	0	294.987074400007	295.187047399988
76438.25	100	508	14	0	36	4	8	0	1	0	0	stim009_stimuli_original_vehicles_boats_1.png	A	0	0	0	295.387089000025	295.587057899975
76538.25	100	509	14	0	36	5	7	3	0	0	0	stim008_stimuli_original_animals_fish_4.png	D	0	0	0	295.787095999985	295.987124399981
76638.25	100	510	14	0	36	6	8	5	1	1	1	stim009_stimuli_original_vehicles_boats_1.png	F	0	0	0	296.187108999991	296.387108299998
76738.25	100	511	14	0	36	7	4	10	0	0	0	stim005_stimuli_original_animals_fish_1.png	Q	0	0	0	296.587121299992	296.787119599991
76838.25	100	512	14	0	36	8	13	5	0	1	0	stim014_stimuli_original_vehicles_planes_2.png	F	0	0	0	296.987131499976	297.187128900026
76938.25	100	513	14	0	36	9	10	7	0	0	0	stim011_stimuli_original_vehicles_boats_3.png	J	d	297.379731199995	1	297.387142000021	297.587144499994
77038.25	100	514	14	0	36	10	8	12	0	0	0	stim009_stimuli_original_vehicles_boats_1.png	T	0	0	0	297.787154900027	297.987165600003
77138.25	100	515	14	0	36	11	0	1	0	0	0	stim001_stimuli_original_animals_birds_1.png	B	0	0	0	298.187164500006	298.387166299974
77238.25	100	516	14	0	36	12	14	5	0	0	0	stim015_stimuli_original_vehicles_planes_3.png	F	0	0	0	298.587172499974	298.787176500016
77338.25	100	517	14	0	36	13	15	8	0	0	0	stim016_stimuli_original_vehicles_planes_4.png	K	0	0	0	298.987183000019	299.187187000003
77438.25	100	518	14	0	36	14	3	2	0	0	0	stim004_stimuli_original_animals_birds_4.png	C	0	0	0	299.387194300012	299.587193600019
77538.25	100	519	14	0	36	15	11	15	0	0	0	stim012_stimuli_original_vehicles_boats_4.png	Y	0	0	0	299.787201999978	299.987204900011
77638.25	100	520	14	0	36	16	5	14	0	0	0	stim006_stimuli_original_animals_fish_2.png	V	0	0	0	300.1872248	300.387222799996
77738.25	100	521	14	0	36	17	1	4	0	0	0	stim002_stimuli_original_animals_birds_2.png	E	0	0	0	300.587233499973	300.787236900011
77838.25	100	522	14	0	36	18	4	1	0	0	0	stim005_stimuli_original_animals_fish_1.png	B	0	0	0	300.98724300001	301.187248000002
77938.25	100	523	14	0	36	19	14	5	0	0	0	stim015_stimuli_original_vehicles_planes_3.png	F	0	0	0	301.387260799995	301.587254800019
78038.25	100	524	14	0	36	20	15	11	0	0	0	stim016_stimuli_original_vehicles_planes_4.png	R	0	0	0	301.787269200024	301.987264900003
78138.25	100	525	14	0	36	21	2	3	0	0	0	stim003_stimuli_original_animals_birds_3.png	D	0	0	0	302.187279400008	302.387278700015
78238.25	100	526	14	0	36	22	8	15	0	0	0	stim009_stimuli_original_vehicles_boats_1.png	Y	0	0	0	302.587278600025	302.787291200017
78338.25	100	527	14	0	36	23	5	14	0	0	0	stim006_stimuli_original_animals_fish_2.png	V	0	0	0	302.987298300024	303.187307299988
78438.25	100	528	14	0	36	24	1	0	0	0	0	stim002_stimuli_original_animals_birds_2.png	A	0	0	0	303.387297199981	303.587310699979
78538.25	100	529	14	0	36	25	12	8	0	0	0	stim013_stimuli_original_vehicles_planes_1.png	K	0	0	0	303.787320200005	303.987318600004
78638.25	100	530	14	0	36	26	7	10	0	0	0	stim008_stimuli_original_animals_fish_4.png	Q	0	0	0	304.187336299976	304.387330800004
78738.25	100	531	14	0	36	27	5	13	1	0	0	stim006_stimuli_original_animals_fish_2.png	U	0	0	0	304.587343599997	304.787345300021
78838.25	100	532	14	0	36	28	10	4	0	0	0	stim011_stimuli_original_vehicles_boats_3.png	E	0	0	0	304.98735239997	305.187375299982
78938.25	100	533	14	0	36	29	5	8	1	1	1	stim006_stimuli_original_animals_fish_2.png	K	d	305.379981799982	1	305.387363300018	305.587364099978
79038.25	100	534	14	0	36	30	3	7	0	0	0	stim004_stimuli_original_animals_birds_4.png	J	0	0	0	305.787359900016	305.987375699973
79138.25	100	535	14	0	36	31	0	8	0	1	0	stim001_stimuli_original_animals_birds_1.png	K	0	0	0	306.187386300007	306.387383900001
79238.25	100	536	14	0	36	32	6	2	0	0	0	stim007_stimuli_original_animals_fish_3.png	C	0	0	0	306.587396099989	306.787397100008
79338.25	100	537	14	0	36	33	9	12	0	0	0	stim010_stimuli_original_vehicles_boats_2.png	T	0	0	0	306.987407699984	307.187409900012
79438.5	100	538	14	0	36	34	11	9	0	0	0	stim012_stimuli_original_vehicles_boats_4.png	L	0	0	0	307.387418799975	307.587420900003
79538.5	100	539	14	0	36	35	13	6	0	0	0	stim014_stimuli_original_vehicles_planes_2.png	G	0	0	0	307.787428000011	307.987420500023
80338.5	100	540	15	1	46	0	14	12	0	0	0	stim015_stimuli_original_vehicles_planes_3.png	T	0	0	0	310.987513399974	311.1875076
80438.5	100	541	15	1	46	1	9	3	0	0	0	stim010_stimuli_original_vehicles_boats_2.png	D	0	0	0	311.387520199991	311.587525599985
80538.5	100	542	15	1	46	2	8	4	0	0	0	stim009_stimuli_original_vehicles_boats_1.png	E	0	0	0	311.78752860002	311.987531799998
80638.5	100	543	15	1	46	3	15	10	0	0	0	stim016_stimuli_original_vehicles_planes_4.png	Q	0	0	0	312.187540200015	312.387540499971
80738.5	100	544	15	1	46	4	0	8	0	0	0	stim001_stimuli_original_animals_birds_1.png	K	0	0	0	312.587526399991	312.78755030001
80838.5	100	545	15	1	46	5	3	9	1	0	0	stim004_stimuli_original_animals_birds_4.png	L	0	0	0	312.987562199996	313.187555100012
80938.5	100	546	15	1	46	6	11	13	0	0	0	stim012_stimuli_original_vehicles_boats_4.png	U	0	0	0	313.387576900015	313.587573299999
81038.5	100	547	15	1	46	7	3	15	1	0	0	stim004_stimuli_original_animals_birds_4.png	Y	0	0	0	313.787586599996	313.987589100027
81138.5	100	548	15	1	46	8	13	2	0	1	0	stim014_stimuli_original_vehicles_planes_2.png	C	0	0	0	314.187596099975	314.387595799984
81238.5	100	549	15	1	46	9	7	7	0	0	0	stim008_stimuli_original_animals_fish_4.png	J	0	0	0	314.587606400019	314.787609199993
81338.5	100	550	15	1	46	10	1	2	0	1	1	stim002_stimuli_original_animals_birds_2.png	C	0	0	0	314.987619400024	315.187625400024
81438.5	100	551	15	1	46	11	3	0	0	0	0	stim004_stimuli_original_animals_birds_4.png	A	d	315.380196499988	1	315.387628099998	315.587628400011
81538.5	100	552	15	1	46	12	12	6	0	0	0	stim013_stimuli_original_vehicles_planes_1.png	G	0	0	0	315.787644799973	315.987639400002
81638.5	100	553	15	1	46	13	2	5	0	0	0	stim003_stimuli_original_animals_birds_3.png	F	0	0	0	316.187650099979	316.387648299977
81738.5	100	554	15	1	46	14	4	14	0	0	0	stim005_stimuli_original_animals_fish_1.png	V	0	0	0	316.587664899998	316.787662499992
81838.5	100	555	15	1	46	15	5	2	0	0	0	stim006_stimuli_original_animals_fish_2.png	C	0	0	0	316.987669900001	317.187657199975
81938.5	100	556	15	1	46	16	10	11	0	0	0	stim011_stimuli_original_vehicles_boats_3.png	R	0	0	0	317.387662300025	317.587683800026
82038.5	100	557	15	1	46	17	6	1	0	0	0	stim007_stimuli_original_animals_fish_3.png	B	0	0	0	317.787689400022	317.987692900002
82138.5	100	558	15	1	46	18	1	6	0	0	0	stim002_stimuli_original_animals_birds_2.png	G	0	0	0	318.18770379998	318.38770229998
82238.5	100	559	15	1	46	19	11	10	0	0	0	stim012_stimuli_original_vehicles_boats_4.png	Q	0	0	0	318.587716499984	318.787714999984
82338.5	100	560	15	1	46	20	2	5	0	0	0	stim003_stimuli_original_animals_birds_3.png	F	0	0	0	318.987724900013	319.187726299977
82438.5	100	561	15	1	46	21	14	4	0	0	0	stim015_stimuli_original_vehicles_planes_3.png	E	0	0	0	319.387720500003	319.587734900007
82538.5	100	562	15	1	46	22	5	2	0	0	0	stim006_stimuli_original_animals_fish_2.png	C	0	0	0	319.787747399998	319.987738299998
82638.5	100	563	15	1	46	23	6	12	0	0	0	stim007_stimuli_original_animals_fish_3.png	T	0	0	0	320.187755300023	320.387756899989
82738.5	100	564	15	1	46	24	0	3	0	0	0	stim001_stimuli_original_animals_birds_1.png	D	0	0	0	320.587758000009	320.787766799971
82838.5	100	565	15	1	46	25	2	1	1	0	0	stim003_stimuli_original_animals_birds_3.png	B	0	0	0	320.987782399985	321.187778200023
82938.5	100	566	15	1	46	26	7	7	0	0	0	stim008_stimuli_original_animals_fish_4.png	J	0	0	0	321.387792100024	321.587788200006
83038.5	100	567	15	1	46	27	2	13	1	0	0	stim003_stimuli_original_animals_birds_3.png	U	0	0	0	321.7878012	321.987802600022
83138.5	100	568	15	1	46	28	15	3	0	1	0	stim016_stimuli_original_vehicles_planes_4.png	D	0	0	0	322.187811599986	322.387810099986
83238.5	100	569	15	1	46	29	13	11	0	0	0	stim014_stimuli_original_vehicles_planes_2.png	R	0	0	0	322.587825199997	322.787824500003
83338.5	100	570	15	1	46	30	9	3	0	1	1	stim010_stimuli_original_vehicles_boats_2.png	D	0	0	0	322.987834599975	323.187817599974
83438.5	100	571	15	1	46	31	8	0	0	0	0	stim009_stimuli_original_vehicles_boats_1.png	A	d	323.579630699998	1	323.387842800003	323.587833500002
83538.5	100	572	15	1	46	32	10	15	0	0	0	stim011_stimuli_original_vehicles_boats_3.png	Y	0	0	0	323.787856200011	323.987857399974
83638.5	100	573	15	1	46	33	4	8	0	0	0	stim005_stimuli_original_animals_fish_1.png	K	0	0	0	324.187869000016	324.387865800003
83738.5	100	574	15	1	46	34	3	9	0	0	0	stim004_stimuli_original_animals_birds_4.png	L	0	0	0	324.587877599988	324.787871000008
83838.5	100	575	15	1	46	35	12	14	0	0	0	stim013_stimuli_original_vehicles_planes_1.png	V	0	0	0	324.98788749997	325.18789489998
84488.5	100	576	16	0	26	0	6	15	0	0	0	stim007_stimuli_original_animals_fish_3.png	Y	0	0	0	327.587934200012	327.787929699989
84588.5	100	577	16	0	26	1	8	13	0	0	0	stim009_stimuli_original_vehicles_boats_1.png	U	0	0	0	327.987940600025	328.187941799988
84688.5	100	578	16	0	26	2	10	3	0	0	0	stim011_stimuli_original_vehicles_boats_3.png	D	0	0	0	328.387952700024	328.587953599985
84788.5	100	579	16	0	26	3	0	9	0	0	0	stim001_stimuli_original_animals_birds_1.png	L	0	0	0	328.78796430002	328.987963600026
84888.5	100	580	16	0	26	4	3	2	0	0	0	stim004_stimuli_original_animals_birds_4.png	C	0	0	0	329.187992000021	329.387974400015
84988.5	100	581	16	0	26	5	2	8	0	0	0	stim003_stimuli_original_animals_birds_3.png	K	0	0	0	329.5879862	329.787981299974
85088.5	100	582	16	0	26	6	15	1	0	0	0	stim016_stimuli_original_vehicles_planes_4.png	B	0	0	0	329.987995199976	330.188009899983
85188.5	100	583	16	0	26	7	9	12	0	1	0	stim010_stimuli_original_vehicles_boats_2.png	T	0	0	0	330.388016799989	330.588016399997
85288.5	100	584	16	0	26	8	7	4	0	0	0	stim008_stimuli_original_animals_fish_4.png	E	0	0	0	330.788027099974	330.988028199994
85388.5	100	585	16	0	26	9	5	12	0	1	0	stim006_stimuli_original_animals_fish_2.png	T	0	0	0	331.18803770002	331.388041800004
85488.5	100	586	16	0	26	10	3	14	1	0	0	stim004_stimuli_original_animals_birds_4.png	V	0	0	0	331.588048200007	331.788038700004
85588.5	100	587	16	0	26	11	12	6	0	0	0	stim013_stimuli_original_vehicles_planes_1.png	G	0	0	0	331.988058899995	332.188057399995
85688.5	100	588	16	0	26	12	3	7	1	0	1	stim004_stimuli_original_animals_birds_4.png	J	0	0	0	332.388069399982	332.58807160001
85788.5	100	589	16	0	26	13	14	11	0	0	0	stim015_stimuli_original_vehicles_planes_3.png	R	0	0	0	332.788078100013	332.988086999976
85888.5	100	590	16	0	26	14	4	0	0	0	0	stim005_stimuli_original_animals_fish_1.png	A	0	0	0	333.18809130002	333.388092599984
85988.5	100	591	16	0	26	15	13	5	0	0	0	stim014_stimuli_original_vehicles_planes_2.png	F	0	0	0	333.588104899973	333.788102400023
86088.5	100	592	16	0	26	16	1	10	0	0	0	stim002_stimuli_original_animals_birds_2.png	Q	0	0	0	333.988113400002	334.188114100019
86188.5	100	593	16	0	26	17	11	12	0	0	0	stim012_stimuli_original_vehicles_boats_4.png	T	0	0	0	334.388124399993	334.58812510001
86288.5	100	594	16	0	26	18	12	11	0	0	0	stim013_stimuli_original_vehicles_planes_1.png	R	0	0	0	334.788134599978	334.988136900007
86388.5	100	595	16	0	26	19	10	1	0	0	0	stim011_stimuli_original_vehicles_boats_3.png	B	0	0	0	335.18814839999	335.38814559998
86488.5	100	596	16	0	26	20	5	13	0	0	0	stim006_stimuli_original_animals_fish_2.png	U	0	0	0	335.588160599989	335.78815410001
86588.5	100	597	16	0	26	21	0	4	0	0	0	stim001_stimuli_original_animals_birds_1.png	E	0	0	0	335.988166199997	336.188169999979
86688.5	100	598	16	0	26	22	11	14	0	0	0	stim012_stimuli_original_vehicles_boats_4.png	V	0	0	0	336.3881788	336.588177099999
86788.5	100	599	16	0	26	23	7	3	0	1	0	stim008_stimuli_original_animals_fish_4.png	D	0	0	0	336.788188699982	336.988187799987
86888.5	100	600	16	0	26	24	6	12	0	0	0	stim007_stimuli_original_animals_fish_3.png	T	0	0	0	337.188204100006	337.388198299974
86988.5	100	601	16	0	26	25	14	3	0	1	0	stim015_stimuli_original_vehicles_planes_3.png	D	0	0	0	337.588210800022	337.788213399996
87088.5	100	602	16	0	26	26	12	5	1	0	0	stim013_stimuli_original_vehicles_planes_1.png	F	0	0	0	337.988220900006	338.18822229997
87188.5	100	603	16	0	26	27	4	7	0	0	0	stim005_stimuli_original_animals_fish_1.png	J	0	0	0	338.388233300007	338.588231200003
87288.5	100	604	16	0	26	28	12	9	1	0	1	stim013_stimuli_original_vehicles_planes_1.png	L	0	0	0	338.788244099997	338.988233899989
87388.5	100	605	16	0	26	29	1	15	0	0	0	stim002_stimuli_original_animals_birds_2.png	Y	d	339.380078200018	1	339.188281300012	339.388256300008
87488.5	100	606	16	0	26	30	8	2	0	0	0	stim009_stimuli_original_vehicles_boats_1.png	C	0	0	0	339.588266899984	339.788263999973
87588.5	100	607	16	0	26	31	2	3	0	0	0	stim003_stimuli_original_animals_birds_3.png	D	0	0	0	339.988285499974	340.188276299974
87688.5	100	608	16	0	26	32	9	0	0	0	0	stim010_stimuli_original_vehicles_boats_2.png	A	0	0	0	340.388284799992	340.58828560001
87788.5	100	609	16	0	26	33	3	10	0	0	0	stim004_stimuli_original_animals_birds_4.png	Q	0	0	0	340.78829539998	340.988285199972
87888.5	100	610	16	0	26	34	13	8	0	0	0	stim014_stimuli_original_vehicles_planes_2.png	K	0	0	0	341.188296400011	341.388295600016
87988.5	100	611	16	0	26	35	15	6	0	0	0	stim016_stimuli_original_vehicles_planes_4.png	G	0	0	0	341.588310000021	341.788308000017
88730.25	100	612	17	1	39	0	0	3	0	0	0	stim001_stimuli_original_animals_birds_1.png	D	0	0	0	344.555062800006	344.755054800014
88830.25	100	613	17	1	39	1	9	5	0	0	0	stim010_stimuli_original_vehicles_boats_2.png	F	0	0	0	344.955063799978	345.15506650001
88930.25	100	614	17	1	39	2	4	4	0	0	0	stim005_stimuli_original_animals_fish_1.png	E	0	0	0	345.355077199987	345.555075299984
89030.25	100	615	17	1	39	3	15	12	0	0	0	stim016_stimuli_original_vehicles_planes_4.png	T	0	0	0	345.755083700002	345.955085899972
89130.25	100	616	17	1	39	4	14	1	0	0	0	stim015_stimuli_original_vehicles_planes_3.png	B	0	0	0	346.155097800016	346.355098899978
89230.25	100	617	17	1	39	5	2	14	0	0	0	stim003_stimuli_original_animals_birds_3.png	V	0	0	0	346.555107099994	346.755112999992
89330.25	100	618	17	1	39	6	13	7	0	0	0	stim014_stimuli_original_vehicles_planes_2.png	J	0	0	0	346.955118199985	347.155120100011
89430.25	100	619	17	1	39	7	8	10	0	0	0	stim009_stimuli_original_vehicles_boats_1.png	Q	0	0	0	347.355128899973	347.555138199998
89530.25	100	620	17	1	39	8	11	5	0	1	0	stim012_stimuli_original_vehicles_boats_4.png	F	0	0	0	347.755146600015	347.955147099972
89630.25	100	621	17	1	39	9	10	2	0	0	0	stim011_stimuli_original_vehicles_boats_3.png	C	0	0	0	348.155166000011	348.355161399988
89730.25	100	622	17	1	39	10	8	5	1	1	1	stim009_stimuli_original_vehicles_boats_1.png	F	0	0	0	348.555172000022	348.75517389999
89830.25	100	623	17	1	39	11	6	9	0	0	0	stim007_stimuli_original_animals_fish_3.png	L	0	0	0	348.955182400008	349.155185299984
89930.25	100	624	17	1	39	12	8	6	1	0	0	stim009_stimuli_original_vehicles_boats_1.png	G	d	349.347760099976	1	349.355201300001	349.555187300022
90030.25	100	625	17	1	39	13	1	11	0	0	0	stim002_stimuli_original_animals_birds_2.png	R	0	0	0	349.755195099977	349.955193699978
90130.25	100	626	17	1	39	14	5	8	0	0	0	stim006_stimuli_original_animals_fish_2.png	K	0	0	0	350.155205200019	350.355205299973
90230.25	100	627	17	1	39	15	7	0	0	0	0	stim008_stimuli_original_animals_fish_4.png	A	0	0	0	350.555213799991	350.755213199998
90330.25	100	628	17	1	39	16	12	13	0	0	0	stim013_stimuli_original_vehicles_planes_1.png	U	0	0	0	350.955225199985	351.15523199999
90430.25	100	629	17	1	39	17	3	15	0	0	0	stim004_stimuli_original_animals_birds_4.png	Y	0	0	0	351.355241400015	351.555236099986
90530.25	100	630	17	1	39	18	15	3	0	0	0	stim016_stimuli_original_vehicles_planes_4.png	D	0	0	0	351.75524530001	351.955247799982
90630.25	100	631	17	1	39	19	13	12	0	0	0	stim014_stimuli_original_vehicles_planes_2.png	T	0	0	0	352.155258300016	352.355258899974
90730.25	100	632	17	1	39	20	0	7	0	0	0	stim001_stimuli_original_animals_birds_1.png	J	0	0	0	352.555269500008	352.755268800014
90830.25	100	633	17	1	39	21	8	5	0	0	0	stim009_stimuli_original_vehicles_boats_1.png	F	0	0	0	352.955279499991	353.155278299993
90930.25	100	634	17	1	39	22	11	1	0	0	0	stim012_stimuli_original_vehicles_boats_4.png	B	0	0	0	353.355290199979	353.555290899996
91030.25	100	635	17	1	39	23	6	8	0	1	0	stim007_stimuli_original_animals_fish_3.png	K	0	0	0	353.755301299971	353.955300599977
91130.25	100	636	17	1	39	24	9	6	0	0	0	stim010_stimuli_original_vehicles_boats_2.png	G	0	0	0	354.155313300027	354.355312699976
91230.25	100	637	17	1	39	25	5	8	1	1	1	stim006_stimuli_original_animals_fish_2.png	K	0	0	0	354.555322500004	354.755322600016
91330.25	100	638	17	1	39	26	2	10	0	0	0	stim003_stimuli_original_animals_birds_3.png	Q	0	0	0	354.955331499979	355.155333400005
91430.25	100	639	17	1	39	27	5	11	1	0	0	stim006_stimuli_original_animals_fish_2.png	R	0	0	0	355.355343299976	355.555343099986
91530.25	100	640	17	1	39	28	10	8	0	0	0	stim011_stimuli_original_vehicles_boats_3.png	K	0	0	0	355.755353300017	355.95535449998
91630.25	100	641	17	1	39	29	7	13	0	0	0	stim008_stimuli_original_animals_fish_4.png	U	0	0	0	356.155365500017	356.355367499986
91730.25	100	642	17	1	39	30	14	2	0	0	0	stim015_stimuli_original_vehicles_planes_3.png	C	0	0	0	356.555374799995	356.755375000008
91830.25	100	643	17	1	39	31	1	14	0	0	0	stim002_stimuli_original_animals_birds_2.png	V	0	0	0	356.955385799985	357.155385999999
91930.25	100	644	17	1	39	32	12	15	0	0	0	stim013_stimuli_original_vehicles_planes_1.png	Y	0	0	0	357.355403000023	357.55540100002
92030.25	100	645	17	1	39	33	4	4	0	0	0	stim005_stimuli_original_animals_fish_1.png	E	0	0	0	357.755408899975	357.95540799998
92130.25	100	646	17	1	39	34	5	9	0	0	0	stim006_stimuli_original_animals_fish_2.png	L	0	0	0	358.155419900024	358.355418400024
92230.25	100	647	17	1	39	35	3	0	0	0	0	stim004_stimuli_original_animals_birds_4.png	A	0	0	0	358.555432100024	358.755429900018
94313.75	100	648	18	0	16	0	13	1	0	0	0	stim014_stimuli_original_vehicles_planes_2.png	B	0	0	0	366.88901330001	367.089014699974
94413.75	100	649	18	0	16	1	11	8	0	0	0	stim012_stimuli_original_vehicles_boats_4.png	K	0	0	0	367.289026200015	367.489019799978
94513.75	100	650	18	0	16	2	9	9	0	0	0	stim010_stimuli_original_vehicles_boats_2.png	L	0	0	0	367.689034499985	367.889034099993
94613.75	100	651	18	0	16	3	15	5	0	0	0	stim016_stimuli_original_vehicles_planes_4.png	F	0	0	0	368.089046699984	368.289043699973
94713.75	100	652	18	0	16	4	14	0	0	0	0	stim015_stimuli_original_vehicles_planes_3.png	A	0	0	0	368.489052199991	368.68905549997
94813.75	100	653	18	0	16	5	10	7	0	0	0	stim011_stimuli_original_vehicles_boats_3.png	J	0	0	0	368.889094199985	369.089063599997
94913.75	100	654	18	0	16	6	6	15	0	1	0	stim007_stimuli_original_animals_fish_3.png	Y	0	0	0	369.289077299996	369.489073399978
95013.75	100	655	18	0	16	7	3	12	0	0	0	stim004_stimuli_original_animals_birds_4.png	T	0	0	0	369.689090400003	369.889086299983
95113.75	100	656	18	0	16	8	8	15	0	1	0	stim009_stimuli_original_vehicles_boats_1.png	Y	0	0	0	370.089094299998	370.289101100003
95213.75	100	657	18	0	16	9	5	11	0	0	0	stim006_stimuli_original_animals_fish_2.png	R	0	0	0	370.489110999973	370.689105500001
95313.75	100	658	18	0	16	10	9	4	1	0	0	stim010_stimuli_original_vehicles_boats_2.png	E	0	0	0	370.889130200027	371.089116499992
95413.75	100	659	18	0	16	11	1	2	0	0	0	stim002_stimuli_original_animals_birds_2.png	C	0	0	0	371.28912739997	371.489129499998
95513.75	100	660	18	0	16	12	9	10	1	0	1	stim010_stimuli_original_vehicles_boats_2.png	Q	0	0	0	371.689141099981	371.889142100001
95613.75	100	661	18	0	16	13	0	13	0	0	0	stim001_stimuli_original_animals_birds_1.png	U	d	372.280943599995	1	372.089150300017	372.289153799997
95713.75	100	662	18	0	16	14	7	15	0	0	0	stim008_stimuli_original_animals_fish_4.png	Y	0	0	0	372.489164499973	372.689159800007
95813.75	100	663	18	0	16	15	12	6	0	0	0	stim013_stimuli_original_vehicles_planes_1.png	G	0	0	0	372.889176799974	373.089156800008
95913.75	100	664	18	0	16	16	2	14	0	0	0	stim003_stimuli_original_animals_birds_3.png	V	0	0	0	373.289189099974	373.489184400009
96013.75	100	665	18	0	16	17	4	3	0	0	0	stim005_stimuli_original_animals_fish_1.png	D	0	0	0	373.689196499996	373.889194099989
96113.75	100	666	18	0	16	18	3	4	0	0	0	stim004_stimuli_original_animals_birds_4.png	E	0	0	0	374.089205100026	374.289203300024
96213.75	100	667	18	0	16	19	14	2	0	0	0	stim015_stimuli_original_vehicles_planes_3.png	C	0	0	0	374.489217899973	374.689214600017
96313.75	100	668	18	0	16	20	6	12	0	0	0	stim007_stimuli_original_animals_fish_3.png	T	0	0	0	374.889227200008	375.089225600008
96413.75	100	669	18	0	16	21	15	7	0	0	0	stim016_stimuli_original_vehicles_planes_4.png	J	0	0	0	375.289238700003	375.489234499983
96513.75	100	670	18	0	16	22	13	0	0	0	0	stim014_stimuli_original_vehicles_planes_2.png	A	0	0	0	375.689250199997	375.889247499988
96613.75	100	671	18	0	16	23	10	9	0	1	0	stim011_stimuli_original_vehicles_boats_3.png	L	0	0	0	376.089269499993	376.289282699989
96713.75	100	672	18	0	16	24	2	1	0	0	0	stim003_stimuli_original_animals_birds_3.png	B	0	0	0	376.489270900027	376.689271199983
96813.75	100	673	18	0	16	25	4	9	0	1	0	stim005_stimuli_original_animals_fish_1.png	L	0	0	0	376.889284899982	377.089279700012
96913.75	100	674	18	0	16	26	11	5	0	0	0	stim012_stimuli_original_vehicles_boats_4.png	F	0	0	0	377.28929320001	377.489291100006
97013.75	100	675	18	0	16	27	15	8	1	0	0	stim016_stimuli_original_vehicles_planes_4.png	K	0	0	0	377.689303199993	377.889305300021
97113.75	100	676	18	0	16	28	12	3	0	0	0	stim013_stimuli_original_vehicles_planes_1.png	D	0	0	0	378.089311200019	378.289313699992
97213.75	100	677	18	0	16	29	15	6	1	0	1	stim016_stimuli_original_vehicles_planes_4.png	G	0	0	0	378.489326799987	378.689322700026
97313.75	100	678	18	0	16	30	7	10	0	0	0	stim008_stimuli_original_animals_fish_4.png	Q	0	0	0	378.889352499973	379.08933420002
97413.75	100	679	18	0	16	31	0	14	0	0	0	stim001_stimuli_original_animals_birds_1.png	V	0	0	0	379.289344599994	379.489346200018
97513.75	100	680	18	0	16	32	5	15	0	0	0	stim006_stimuli_original_animals_fish_2.png	Y	0	0	0	379.689354699978	379.889355299994
97613.75	100	681	18	0	16	33	9	9	0	0	0	stim010_stimuli_original_vehicles_boats_2.png	L	0	0	0	380.08936849999	380.289373099979
97713.75	100	682	18	0	16	34	8	11	0	0	0	stim009_stimuli_original_vehicles_boats_1.png	R	0	0	0	380.489374800003	380.68938180001
97813.75	100	683	18	0	16	35	1	13	0	0	0	stim002_stimuli_original_animals_birds_2.png	U	0	0	0	380.88938920002	381.089384599996
98688.75	100	684	19	1	5	0	14	1	0	0	0	stim015_stimuli_original_vehicles_planes_3.png	B	0	0	0	384.38948730001	384.589470900013
98788.75	100	685	19	1	5	1	12	14	0	0	0	stim013_stimuli_original_vehicles_planes_1.png	V	0	0	0	384.789495499979	384.989496800001
98888.75	100	686	19	1	5	2	1	10	0	0	0	stim002_stimuli_original_animals_birds_2.png	Q	0	0	0	385.189508699987	385.38951020001
98988.75	100	687	19	1	5	3	8	3	0	0	0	stim009_stimuli_original_vehicles_boats_1.png	D	0	0	0	385.589516600012	385.789520299993
99088.75	100	688	19	1	5	4	3	13	0	0	0	stim004_stimuli_original_animals_birds_4.png	U	0	0	0	385.989528900012	386.189529300027
99188.75	100	689	19	1	5	5	4	9	0	0	0	stim005_stimuli_original_animals_fish_1.png	L	0	0	0	386.38952159998	386.589530900004
99288.75	100	690	19	1	5	6	13	0	0	1	0	stim014_stimuli_original_vehicles_planes_2.png	A	0	0	0	386.789552600007	386.989550900005
99388.75	100	691	19	1	5	7	14	11	1	0	0	stim015_stimuli_original_vehicles_planes_3.png	R	0	0	0	387.189563499996	387.389558100025
99488.75	100	692	19	1	5	8	7	0	0	1	1	stim008_stimuli_original_animals_fish_4.png	A	0	0	0	387.589569700009	387.789572499983
99588.75	100	693	19	1	5	9	14	4	1	0	0	stim015_stimuli_original_vehicles_planes_3.png	E	0	0	0	387.989582500013	388.189582000021
99688.75	100	694	19	1	5	10	0	5	0	0	0	stim001_stimuli_original_animals_birds_1.png	F	0	0	0	388.389591099985	388.589580499975
99788.75	100	695	19	1	5	11	2	6	0	0	0	stim003_stimuli_original_animals_birds_3.png	G	0	0	0	388.789605099999	388.989603900001
99888.75	100	696	19	1	5	12	11	7	0	0	0	stim012_stimuli_original_vehicles_boats_4.png	J	0	0	0	389.18961120001	389.389616600005
99988.75	100	697	19	1	5	13	15	12	0	0	0	stim016_stimuli_original_vehicles_planes_4.png	T	0	0	0	389.589622400003	389.78962559998
100089	100	698	19	1	5	14	5	2	0	0	0	stim006_stimuli_original_animals_fish_2.png	C	0	0	0	389.989639099978	390.189637599979
100189	100	699	19	1	5	15	9	8	0	0	0	stim010_stimuli_original_vehicles_boats_2.png	K	0	0	0	390.389640900015	390.589641699975
100289	100	700	19	1	5	16	6	0	0	0	0	stim007_stimuli_original_animals_fish_3.png	A	0	0	0	390.789639200026	390.989653100027
100389	100	701	19	1	5	17	10	15	0	0	0	stim011_stimuli_original_vehicles_boats_3.png	Y	0	0	0	391.189641200006	391.38966310001
100489	100	702	19	1	5	18	15	10	0	0	0	stim016_stimuli_original_vehicles_planes_4.png	Q	0	0	0	391.589676600008	391.789676100016
100589	100	703	19	1	5	19	0	6	0	0	0	stim001_stimuli_original_animals_birds_1.png	G	0	0	0	391.989686999994	392.189692299988
100689	100	704	19	1	5	20	8	9	0	0	0	stim009_stimuli_original_vehicles_boats_1.png	L	0	0	0	392.389698399988	392.589694899973
100789	100	705	19	1	5	21	2	5	0	0	0	stim003_stimuli_original_animals_birds_3.png	F	0	0	0	392.789710599987	392.989707299974
100889	100	706	19	1	5	22	12	15	0	0	0	stim013_stimuli_original_vehicles_planes_1.png	Y	0	0	0	393.189718300011	393.389718800026
100989	100	707	19	1	5	23	7	11	0	0	0	stim008_stimuli_original_animals_fish_4.png	R	0	0	0	393.589731100015	393.789738000021
101089	100	708	19	1	5	24	6	2	0	0	0	stim007_stimuli_original_animals_fish_3.png	C	0	0	0	393.989754499984	394.189740200003
101189	100	709	19	1	5	25	5	0	0	0	0	stim006_stimuli_original_animals_fish_2.png	A	0	0	0	394.389751099981	394.58975460002
101289	100	710	19	1	5	26	4	14	0	1	0	stim005_stimuli_original_animals_fish_1.png	V	0	0	0	394.789761500026	394.989761699981
101389	100	711	19	1	5	27	0	7	1	0	0	stim001_stimuli_original_animals_birds_1.png	J	0	0	0	395.189772800019	395.389771000016
101489	100	712	19	1	5	28	11	14	0	1	1	stim012_stimuli_original_vehicles_boats_4.png	V	0	0	0	395.589788399986	395.789808299975
101589	100	713	19	1	5	29	0	13	1	0	0	stim001_stimuli_original_animals_birds_1.png	U	0	0	0	395.989783200028	396.189799499989
101689	100	714	19	1	5	30	9	4	0	0	0	stim010_stimuli_original_vehicles_boats_2.png	E	0	0	0	396.389802700025	396.58982210001
101789	100	715	19	1	5	31	13	3	0	0	0	stim014_stimuli_original_vehicles_planes_2.png	D	0	0	0	396.789815300028	396.989818500006
101889	100	716	19	1	5	32	3	8	0	0	0	stim004_stimuli_original_animals_birds_4.png	K	0	0	0	397.189827100025	397.389827799983
101989	100	717	19	1	5	33	10	1	0	0	0	stim011_stimuli_original_vehicles_boats_3.png	B	0	0	0	397.589840099972	397.789836400014
102089	100	718	19	1	5	34	14	12	0	0	0	stim015_stimuli_original_vehicles_planes_3.png	T	0	0	0	397.989844999975	398.18985179998
102189	100	719	19	1	5	35	1	14	0	0	0	stim002_stimuli_original_animals_birds_2.png	V	0	0	0	398.389858999988	398.58984249999
103564	100	720	20	0	44	0	9	9	0	0	0	stim010_stimuli_original_vehicles_boats_2.png	L	0	0	0	403.890031600022	404.090010799991
103664	100	721	20	0	44	1	12	10	0	0	0	stim013_stimuli_original_vehicles_planes_1.png	Q	0	0	0	404.290020100016	404.490011700022
103764	100	722	20	0	44	2	8	6	0	0	0	stim009_stimuli_original_vehicles_boats_1.png	G	0	0	0	404.690032400016	404.890003699984
103864	100	723	20	0	44	3	0	15	0	0	0	stim001_stimuli_original_animals_birds_1.png	Y	0	0	0	405.090014300018	405.290017199994
103964	100	724	20	0	44	4	6	4	0	0	0	stim007_stimuli_original_animals_fish_3.png	E	0	0	0	405.490025400009	405.690024500014
104064	100	725	20	0	44	5	13	14	0	0	0	stim014_stimuli_original_vehicles_planes_2.png	V	0	0	0	405.890035199991	406.090061100025
104164	100	726	20	0	44	6	11	7	0	0	0	stim012_stimuli_original_vehicles_boats_4.png	J	0	0	0	406.290048800001	406.490048200008
104264	100	727	20	0	44	7	1	11	0	0	0	stim002_stimuli_original_animals_birds_2.png	R	0	0	0	406.690059099987	406.890057899989
104364	100	728	20	0	44	8	12	4	1	1	0	stim013_stimuli_original_vehicles_planes_1.png	E	0	0	0	407.090070299979	407.290068999981
104464	100	729	20	0	44	9	15	0	0	0	0	stim016_stimuli_original_vehicles_planes_4.png	A	0	0	0	407.490080200019	407.690079600026
104564	100	730	20	0	44	10	12	4	1	1	1	stim013_stimuli_original_vehicles_planes_1.png	E	0	0	0	407.890091500012	408.090090300015
104664	100	731	20	0	44	11	3	13	0	0	0	stim004_stimuli_original_animals_birds_4.png	U	0	0	0	408.290103600011	408.4901006
104764	100	732	20	0	44	12	5	3	0	0	0	stim006_stimuli_original_animals_fish_2.png	D	0	0	0	408.690119899984	408.890112699999
104864	100	733	20	0	44	13	2	2	0	0	0	stim003_stimuli_original_animals_birds_3.png	C	0	0	0	409.090124399983	409.290125400003
104964	100	734	20	0	44	14	4	5	0	0	0	stim005_stimuli_original_animals_fish_1.png	F	0	0	0	409.490135599975	409.690134399978
105064	100	735	20	0	44	15	10	8	0	0	0	stim011_stimuli_original_vehicles_boats_3.png	K	0	0	0	409.890144200006	410.090145500028
105164	100	736	20	0	44	16	14	12	0	0	0	stim015_stimuli_original_vehicles_planes_3.png	T	0	0	0	410.290156100004	410.490156300017
105264	100	737	20	0	44	17	7	1	0	0	0	stim008_stimuli_original_animals_fish_4.png	B	0	0	0	410.69017050002	410.890165899997
105364	100	738	20	0	44	18	1	7	0	0	0	stim002_stimuli_original_animals_birds_2.png	J	0	0	0	411.090180800005	411.290188600018
105464	100	739	20	0	44	19	12	14	0	0	0	stim013_stimuli_original_vehicles_planes_1.png	V	0	0	0	411.490186800016	411.690189299989
105564	100	740	20	0	44	20	8	10	0	0	0	stim009_stimuli_original_vehicles_boats_1.png	Q	0	0	0	411.890197700006	412.090198700025
105664	100	741	20	0	44	21	5	4	0	0	0	stim006_stimuli_original_animals_fish_2.png	E	0	0	0	412.290211000014	412.490208400006
105764	100	742	20	0	44	22	2	2	0	0	0	stim003_stimuli_original_animals_birds_3.png	C	0	0	0	412.690219899989	412.890221500013
105864	100	743	20	0	44	23	3	5	0	0	0	stim004_stimuli_original_animals_birds_4.png	F	0	0	0	413.090228900022	413.290231299994
105964	100	744	20	0	44	24	13	3	0	0	0	stim014_stimuli_original_vehicles_planes_2.png	D	0	0	0	413.490241800027	413.690240000025
106064	100	745	20	0	44	25	4	12	1	1	0	stim005_stimuli_original_animals_fish_1.png	T	0	0	0	413.890252900019	414.090253699978
106164	100	746	20	0	44	26	0	15	0	0	0	stim001_stimuli_original_animals_birds_1.png	Y	0	0	0	414.290263700008	414.49026370002
106264	100	747	20	0	44	27	4	12	1	1	1	stim005_stimuli_original_animals_fish_1.png	T	0	0	0	414.690274699999	414.890272599994
106364	100	748	20	0	44	28	11	1	0	0	0	stim012_stimuli_original_vehicles_boats_4.png	B	d	415.082831599982	1	415.090283299971	415.29028690001
106464	100	749	20	0	44	29	7	11	0	0	0	stim008_stimuli_original_animals_fish_4.png	R	0	0	0	415.490295200027	415.690298700007
106564	100	750	20	0	44	30	14	13	0	0	0	stim015_stimuli_original_vehicles_planes_3.png	U	0	0	0	415.890307500027	416.090307099978
106664	100	751	20	0	44	31	4	6	0	0	0	stim005_stimuli_original_animals_fish_1.png	G	0	0	0	416.290316400002	416.490317500022
106764	100	752	20	0	44	32	15	0	0	0	0	stim016_stimuli_original_vehicles_planes_4.png	A	0	0	0	416.690328900004	416.890326699999
106864	100	753	20	0	44	33	6	8	0	0	0	stim007_stimuli_original_animals_fish_3.png	K	0	0	0	417.090339099988	417.290340000007
106964	100	754	20	0	44	34	10	12	0	0	0	stim011_stimuli_original_vehicles_boats_3.png	T	0	0	0	417.49035019998	417.690349199984
107064	100	755	20	0	44	35	9	9	0	0	0	stim010_stimuli_original_vehicles_boats_2.png	L	0	0	0	417.890360800026	418.090359799971
108005.75	100	756	21	1	34	0	1	14	0	0	0	stim002_stimuli_original_animals_birds_2.png	V	0	0	0	421.657157299982	421.857167800015
108105.75	100	757	21	1	34	1	12	5	0	0	0	stim013_stimuli_original_vehicles_planes_1.png	F	0	0	0	422.057156499999	422.257170800003
108205.75	100	758	21	1	34	2	13	10	0	0	0	stim014_stimuli_original_vehicles_planes_2.png	Q	0	0	0	422.457179000019	422.657174699998
108305.75	100	759	21	1	34	3	0	7	0	0	0	stim001_stimuli_original_animals_birds_1.png	J	0	0	0	422.857188199996	423.057185099984
108405.75	100	760	21	1	34	4	15	13	0	0	0	stim016_stimuli_original_vehicles_planes_4.png	U	0	0	0	423.257197399973	423.457181699981
108505.75	100	761	21	1	34	5	2	4	0	0	0	stim003_stimuli_original_animals_birds_3.png	E	0	0	0	423.657212999999	423.857210099988
108605.75	100	762	21	1	34	6	9	15	0	0	0	stim010_stimuli_original_vehicles_boats_2.png	Y	0	0	0	424.057213800028	424.257218400016
108705.75	100	763	21	1	34	7	6	9	0	1	0	stim007_stimuli_original_animals_fish_3.png	L	0	0	0	424.457230200002	424.657229100005
108805.75	100	764	21	1	34	8	13	8	1	0	0	stim014_stimuli_original_vehicles_planes_2.png	K	0	0	0	424.857240199985	425.057241300005
108905.75	100	765	21	1	34	9	7	9	0	1	1	stim008_stimuli_original_animals_fish_4.png	L	0	0	0	425.257274299976	425.457249099971
109005.75	100	766	21	1	34	10	13	1	1	0	0	stim014_stimuli_original_vehicles_planes_2.png	B	d	425.849115199992	1	425.657261100016	425.857261999976
109105.75	100	767	21	1	34	11	11	12	0	0	0	stim012_stimuli_original_vehicles_boats_4.png	T	0	0	0	426.057270499994	426.257275699987
109205.75	100	768	21	1	34	12	5	9	0	0	0	stim006_stimuli_original_animals_fish_2.png	L	0	0	0	426.457284000004	426.657254300022
109305.75	100	769	21	1	34	13	3	2	0	0	0	stim004_stimuli_original_animals_birds_4.png	C	0	0	0	426.857292599976	427.057294400001
109405.75	100	770	21	1	34	14	4	0	0	0	0	stim005_stimuli_original_animals_fish_1.png	A	0	0	0	427.257302200014	427.457301600021
109505.75	100	771	21	1	34	15	14	11	0	0	0	stim015_stimuli_original_vehicles_planes_3.png	R	0	0	0	427.657315300021	427.857312200009
109605.75	100	772	21	1	34	16	10	3	0	0	0	stim011_stimuli_original_vehicles_boats_3.png	D	0	0	0	428.057328699972	428.257322599995
109705.75	100	773	21	1	34	17	8	6	0	0	0	stim009_stimuli_original_vehicles_boats_1.png	G	0	0	0	428.457333599974	428.657335800002
109805.75	100	774	21	1	34	18	6	8	0	0	0	stim007_stimuli_original_animals_fish_3.png	K	0	0	0	428.857350700011	429.057345599984
109905.75	100	775	21	1	34	19	3	10	0	0	0	stim004_stimuli_original_animals_birds_4.png	Q	0	0	0	429.257357400027	429.457371200027
110005.75	100	776	21	1	34	20	11	14	0	0	0	stim012_stimuli_original_vehicles_boats_4.png	V	0	0	0	429.657365799998	429.857372700004
110105.75	100	777	21	1	34	21	0	4	0	0	0	stim001_stimuli_original_animals_birds_1.png	E	0	0	0	430.057375899982	430.257377000002
110205.75	100	778	21	1	34	22	2	3	0	0	0	stim003_stimuli_original_animals_birds_3.png	D	0	0	0	430.457385600021	430.65738769999
110305.75	100	779	21	1	34	23	9	5	0	0	0	stim010_stimuli_original_vehicles_boats_2.png	F	0	0	0	430.857396000007	431.057399399986
110405.75	100	780	21	1	34	24	12	11	0	0	0	stim013_stimuli_original_vehicles_planes_1.png	R	0	0	0	431.257409800019	431.457409599971
110505.75	100	781	21	1	34	25	1	13	0	1	0	stim002_stimuli_original_animals_birds_2.png	U	0	0	0	431.657421400014	431.857417199994
110605.75	100	782	21	1	34	26	9	7	1	0	0	stim010_stimuli_original_vehicles_boats_2.png	J	0	0	0	432.057444799982	432.257431000005
110705.75	100	783	21	1	34	27	8	13	0	1	1	stim009_stimuli_original_vehicles_boats_1.png	U	0	0	0	432.45744540001	432.657442900003
110805.75	100	784	21	1	34	28	9	6	1	0	0	stim010_stimuli_original_vehicles_boats_2.png	G	0	0	0	432.857455799996	433.057455100003
110905.75	100	785	21	1	34	29	15	9	0	0	0	stim016_stimuli_original_vehicles_planes_4.png	L	0	0	0	433.257466499985	433.457461300015
111005.75	100	786	21	1	34	30	4	2	0	0	0	stim005_stimuli_original_animals_fish_1.png	C	0	0	0	433.657473500003	433.857472300006
111105.75	100	787	21	1	34	31	13	15	0	0	0	stim014_stimuli_original_vehicles_planes_2.png	Y	0	0	0	434.05747509998	434.257484000002
111205.75	100	788	21	1	34	32	7	0	0	0	0	stim008_stimuli_original_animals_fish_4.png	A	0	0	0	434.457495199982	434.657495699998
111305.75	100	789	21	1	34	33	10	13	0	0	0	stim011_stimuli_original_vehicles_boats_3.png	U	0	0	0	434.857504600019	435.0575082
111405.75	100	790	21	1	34	34	5	12	0	0	0	stim006_stimuli_original_animals_fish_2.png	T	0	0	0	435.257518699975	435.457518999989
111505.75	100	791	21	1	34	35	14	1	0	0	0	stim015_stimuli_original_vehicles_planes_3.png	B	0	0	0	435.657525499992	435.857526600012
112197.5	100	792	22	0	9	0	10	5	0	0	0	stim011_stimuli_original_vehicles_boats_3.png	F	0	0	0	438.424248400028	438.624246999971
112297.5	100	793	22	0	9	1	5	10	0	0	0	stim006_stimuli_original_animals_fish_2.png	Q	0	0	0	438.82425569999	439.024258900026
112397.5	100	794	22	0	9	2	4	9	0	0	0	stim005_stimuli_original_animals_fish_1.png	L	0	0	0	439.224269099999	439.424267399998
112497.5	100	795	22	0	9	3	14	8	0	0	0	stim015_stimuli_original_vehicles_planes_3.png	K	0	0	0	439.624279099982	439.824277799984
112597.5	100	796	22	0	9	4	9	0	0	0	0	stim010_stimuli_original_vehicles_boats_2.png	A	0	0	0	440.024292099988	440.224294900021
112697.5	100	797	22	0	9	5	0	14	0	1	0	stim001_stimuli_original_animals_birds_1.png	V	0	0	0	440.424301500025	440.624299800023
112797.5	100	798	22	0	9	6	1	1	1	0	0	stim002_stimuli_original_animals_birds_2.png	B	0	0	0	440.824310299999	441.024308599997
112897.5	100	799	22	0	9	7	13	14	0	1	0	stim014_stimuli_original_vehicles_planes_2.png	V	0	0	0	441.224326300027	441.424322900013
