onset	duration	eventnumber	sequencenumber	condition	streamnumber	stimnumber	objectstimnumber	letterstimnumber	objecttarget	lettertarget	is2back	objectstim	letterstim	response	rt	correct	time_stimon	time_stimoff
128.269	0.2	0	0	1	37	0	11	7	0	0	0	stim012_stimuli_original_vehicles_boats_4.png	J	0	0	0	161.985029999982	162.185030199995
128.669	0.2	1	0	1	37	1	10	5	0	0	0	stim011_stimuli_original_vehicles_boats_3.png	F	0	0	0	162.385446499975	162.585016699973
129.069	0.2	2	0	1	37	2	14	12	0	0	0	stim015_stimuli_original_vehicles_planes_3.png	T	0	0	0	162.785020699957	162.985020899971
129.469	0.2	3	0	1	37	3	0	14	0	0	0	stim001_stimuli_original_animals_birds_1.png	V	0	0	0	163.185035299975	163.385034299979
129.869	0.2	4	0	1	37	4	15	1	0	0	0	stim016_stimuli_original_vehicles_planes_4.png	B	0	0	0	163.585042999999	163.78507719998
130.269	0.2	5	0	1	37	5	2	9	0	0	0	stim003_stimuli_original_animals_birds_3.png	L	0	0	0	163.985052199976	164.185050599976
130.669	0.2	6	0	1	37	6	3	8	0	0	0	stim004_stimuli_original_animals_birds_4.png	K	0	0	0	164.385066699993	164.585061799968
131.069	0.2	7	0	1	37	7	12	11	0	0	0	stim013_stimuli_original_vehicles_planes_1.png	R	0	0	0	164.785080000001	164.985071999952
131.469	0.2	8	0	1	37	8	9	2	0	0	0	stim010_stimuli_original_vehicles_boats_2.png	C	0	0	0	165.185084800003	165.385083700006
131.869	0.2	9	0	1	37	9	6	4	0	0	0	stim007_stimuli_original_animals_fish_3.png	E	0	0	0	165.58509899996	165.785091399972
132.269	0.2	10	0	1	37	10	2	14	1	1	0	stim003_stimuli_original_animals_birds_3.png	V	0	0	0	165.98512779997	166.185101599956
132.669	0.2	11	0	1	37	11	5	10	0	0	0	stim006_stimuli_original_animals_fish_2.png	Q	0	0	0	166.385137200006	166.585113299952
133.069	0.2	12	0	1	37	12	2	14	1	1	1	stim003_stimuli_original_animals_birds_3.png	V	0	0	0	166.78512429999	166.985127099964
133.469	0.2	13	0	1	37	13	13	6	0	0	0	stim014_stimuli_original_vehicles_planes_2.png	G	NaN	167.376939199981	1	167.185138799949	167.385135899996
133.869	0.2	14	0	1	37	14	8	15	0	0	0	stim009_stimuli_original_vehicles_boats_1.png	Y	0	0	0	167.585147799982	167.785404899972
134.269	0.2	15	0	1	37	15	4	13	0	0	0	stim005_stimuli_original_animals_fish_1.png	U	0	0	0	167.985158099968	168.18515559996
134.669	0.2	16	0	1	37	16	7	0	0	0	0	stim008_stimuli_original_animals_fish_4.png	A	0	0	0	168.385165899992	168.585165800003
135.069	0.2	17	0	1	37	17	1	3	0	0	0	stim002_stimuli_original_animals_birds_2.png	D	0	0	0	168.785178199993	168.985190199979
135.469	0.2	18	0	1	37	18	3	1	0	0	0	stim004_stimuli_original_animals_birds_4.png	B	0	0	0	169.185186399962	169.385186599975
135.869	0.2	19	0	1	37	19	0	7	0	0	0	stim001_stimuli_original_animals_birds_1.png	J	0	0	0	169.585201799986	169.785196199955
136.269	0.2	20	0	1	37	20	13	4	0	0	0	stim014_stimuli_original_vehicles_planes_2.png	E	0	0	0	169.985205999983	170.185206800001
136.669	0.2	21	0	1	37	21	15	8	0	0	0	stim016_stimuli_original_vehicles_planes_4.png	K	0	0	0	170.385218199983	170.58521759999
137.069	0.2	22	0	1	37	22	6	13	0	0	0	stim007_stimuli_original_animals_fish_3.png	U	0	0	0	170.785229699977	170.985229699989
137.469	0.2	23	0	1	37	23	14	2	1	1	0	stim015_stimuli_original_vehicles_planes_3.png	C	0	0	0	171.185240499966	171.385237499955
137.869	0.2	24	0	1	37	24	10	5	0	0	0	stim011_stimuli_original_vehicles_boats_3.png	F	0	0	0	171.585247199982	171.785248800006
138.269	0.2	25	0	1	37	25	14	2	1	1	1	stim015_stimuli_original_vehicles_planes_3.png	C	0	0	0	171.98526279995	172.185261999955
138.669	0.2	26	0	1	37	26	4	6	0	0	0	stim005_stimuli_original_animals_fish_1.png	G	NaN	172.577063599951	1	172.385270299972	172.585268599971
139.069	0.2	27	0	1	37	27	2	9	0	0	0	stim003_stimuli_original_animals_birds_3.png	L	0	0	0	172.78528089996	172.985278399952
139.469	0.2	28	0	1	37	28	11	12	0	0	0	stim012_stimuli_original_vehicles_boats_4.png	T	0	0	0	173.185290599999	173.385290999955
139.869	0.2	29	0	1	37	29	8	3	0	0	0	stim009_stimuli_original_vehicles_boats_1.png	D	0	0	0	173.585301399988	173.785300299991
140.269	0.2	30	0	1	37	30	9	2	0	0	0	stim010_stimuli_original_vehicles_boats_2.png	C	0	0	0	173.985311699973	174.185314699949
140.669	0.2	31	0	1	37	31	1	15	0	0	0	stim002_stimuli_original_animals_birds_2.png	Y	0	0	0	174.38532219996	174.585322199971
141.069	0.2	32	0	1	37	32	14	0	0	0	0	stim015_stimuli_original_vehicles_planes_3.png	A	0	0	0	174.785333399952	174.985330199997
141.469	0.2	33	0	1	37	33	12	14	0	0	0	stim013_stimuli_original_vehicles_planes_1.png	V	0	0	0	175.185343299992	175.385354399972
141.869	0.2	34	0	1	37	34	5	10	0	0	0	stim006_stimuli_original_animals_fish_2.png	Q	0	0	0	175.585356700001	175.785352599982
142.269	0.2	35	0	1	37	35	7	11	0	0	0	stim008_stimuli_original_animals_fish_4.png	R	0	0	0	175.985365199973	176.18536199996
145.552	0.2	36	1	0	12	0	2	12	0	0	0	stim003_stimuli_original_animals_birds_3.png	T	0	0	0	179.268785099965	179.468783599965
145.952	0.2	37	1	0	12	1	7	0	0	0	0	stim008_stimuli_original_animals_fish_4.png	A	0	0	0	179.668793699995	179.868797299976
146.352	0.2	38	1	0	12	2	8	3	0	0	0	stim009_stimuli_original_vehicles_boats_1.png	D	0	0	0	180.068804099981	180.268803799991
146.752	0.2	39	1	0	12	3	9	8	0	0	0	stim010_stimuli_original_vehicles_boats_2.png	K	0	0	0	180.468815199973	180.668814299977
147.152	0.2	40	1	0	12	4	14	7	0	0	0	stim015_stimuli_original_vehicles_planes_3.png	J	0	0	0	180.868822999997	181.068822300003
147.552	0.2	41	1	0	12	5	5	10	0	1	0	stim006_stimuli_original_animals_fish_2.png	Q	0	0	0	181.268833499984	181.468833499996
147.952	0.2	42	1	0	12	6	15	6	0	0	0	stim016_stimuli_original_vehicles_planes_4.png	G	0	0	0	181.668846399989	181.868842799973
148.352	0.2	43	1	0	12	7	11	10	1	1	0	stim012_stimuli_original_vehicles_boats_4.png	Q	0	0	0	182.068856499973	182.268859699951
148.752	0.2	44	1	0	12	8	3	9	0	0	0	stim004_stimuli_original_animals_birds_4.png	L	NaN	182.461439099978	0	182.468866399955	182.668867699977
149.152	0.2	45	1	0	12	9	11	1	1	0	1	stim012_stimuli_original_vehicles_boats_4.png	B	0	0	0	182.868877000001	183.068874999997
149.552	0.2	46	1	0	12	10	10	2	0	0	0	stim011_stimuli_original_vehicles_boats_3.png	C	0	0	0	183.268904900004	183.468896099948
149.952	0.2	47	1	0	12	11	13	10	0	0	0	stim014_stimuli_original_vehicles_planes_2.png	Q	0	0	0	183.668897299969	183.868896499975
150.352	0.2	48	1	0	12	12	4	14	0	0	0	stim005_stimuli_original_animals_fish_1.png	V	0	0	0	184.0689059	184.268917299982
150.752	0.2	49	1	0	12	13	11	4	0	0	0	stim012_stimuli_original_vehicles_boats_4.png	E	0	0	0	184.46893079998	184.668915099988
151.152	0.2	50	1	0	12	14	12	5	0	0	0	stim013_stimuli_original_vehicles_planes_1.png	F	0	0	0	184.868931299949	185.068939199962
151.552	0.2	51	1	0	12	15	6	15	0	0	0	stim007_stimuli_original_animals_fish_3.png	Y	0	0	0	185.268941399991	185.46893719997
151.952	0.2	52	1	0	12	16	1	13	0	0	0	stim002_stimuli_original_animals_birds_2.png	U	0	0	0	185.668948199949	185.868945900002
152.352	0.2	53	1	0	12	17	0	11	0	0	0	stim001_stimuli_original_animals_birds_1.png	R	0	0	0	186.068961099954	186.268958200002
152.752	0.2	54	1	0	12	18	11	0	0	0	0	stim012_stimuli_original_vehicles_boats_4.png	A	0	0	0	186.468969799986	186.668969099992
153.153	0.2	55	1	0	12	19	13	1	0	0	0	stim014_stimuli_original_vehicles_planes_2.png	B	0	0	0	186.868994599965	187.068976399954
153.553	0.2	56	1	0	12	20	15	6	0	0	0	stim016_stimuli_original_vehicles_planes_4.png	G	0	0	0	187.268989899952	187.468989999965
153.953	0.2	57	1	0	12	21	5	12	0	0	0	stim006_stimuli_original_animals_fish_2.png	T	0	0	0	187.669000399997	187.869000099949
154.353	0.2	58	1	0	12	22	4	11	0	0	0	stim005_stimuli_original_animals_fish_1.png	R	0	0	0	188.069011299987	188.26901509997
154.753	0.2	59	1	0	12	23	14	4	0	0	0	stim015_stimuli_original_vehicles_planes_3.png	E	0	0	0	188.469024999999	188.66903239995
155.153	0.2	60	1	0	12	24	10	13	0	0	0	stim011_stimuli_original_vehicles_boats_3.png	U	0	0	0	188.869032299961	189.069027699996
155.553	0.2	61	1	0	12	25	2	10	0	0	0	stim003_stimuli_original_animals_birds_3.png	Q	0	0	0	189.269041399995	189.469040800002
155.953	0.2	62	1	0	12	26	1	11	0	1	0	stim002_stimuli_original_animals_birds_2.png	R	0	0	0	189.669052199984	189.869064399973
156.353	0.2	63	1	0	12	27	9	3	0	0	0	stim010_stimuli_original_vehicles_boats_2.png	D	0	0	0	190.069061899965	190.269061099971
156.753	0.2	64	1	0	12	28	10	11	1	1	0	stim011_stimuli_original_vehicles_boats_3.png	R	0	0	0	190.46907349996	190.66907189996
157.153	0.2	65	1	0	12	29	6	15	0	0	0	stim007_stimuli_original_animals_fish_3.png	Y	0	0	0	190.869084000005	191.069081199996
157.553	0.2	66	1	0	12	30	10	5	1	0	1	stim011_stimuli_original_vehicles_boats_3.png	F	0	0	0	191.269093799987	191.469094200002
157.953	0.2	67	1	0	12	31	7	14	0	0	0	stim008_stimuli_original_animals_fish_4.png	V	NaN	191.860898199957	1	191.66910639999	191.869103099976
158.353	0.2	68	1	0	12	32	8	9	0	0	0	stim009_stimuli_original_vehicles_boats_1.png	L	0	0	0	192.069119499996	192.269114399969
158.753	0.2	69	1	0	12	33	3	8	0	0	0	stim004_stimuli_original_animals_birds_4.png	K	0	0	0	192.469126199954	192.669126099965
159.153	0.2	70	1	0	12	34	0	7	0	0	0	stim001_stimuli_original_animals_birds_1.png	J	0	0	0	192.869134999986	193.069155499979
159.553	0.2	71	1	0	12	35	12	2	0	0	0	stim013_stimuli_original_vehicles_planes_1.png	C	0	0	0	193.2691567	193.46915879997
161.303	0.2	72	2	1	3	0	0	15	0	0	0	stim001_stimuli_original_animals_birds_1.png	Y	0	0	0	195.019204299955	195.219210499956
161.703	0.2	73	2	1	3	1	11	9	0	0	0	stim012_stimuli_original_vehicles_boats_4.png	L	0	0	0	195.41921339999	195.61920169997
162.103	0.2	74	2	1	3	2	14	13	0	0	0	stim015_stimuli_original_vehicles_planes_3.png	U	0	0	0	195.819222399965	196.019221899973
162.503	0.2	75	2	1	3	3	6	14	0	0	0	stim007_stimuli_original_animals_fish_3.png	V	0	0	0	196.219237399986	196.419234799978
162.903	0.2	76	2	1	3	4	1	12	0	0	0	stim002_stimuli_original_animals_birds_2.png	T	0	0	0	196.619243399997	196.819249599997
163.303	0.2	77	2	1	3	5	9	5	0	1	0	stim010_stimuli_original_vehicles_boats_2.png	F	0	0	0	197.019255799998	197.219252699986
163.703	0.2	78	2	1	3	6	2	10	0	0	0	stim003_stimuli_original_animals_birds_3.png	Q	0	0	0	197.419265999983	197.619263899978
164.103	0.2	79	2	1	3	7	15	5	0	1	1	stim016_stimuli_original_vehicles_planes_4.png	F	0	0	0	197.819277099974	198.019273199956
164.503	0.2	80	2	1	3	8	8	3	1	0	0	stim009_stimuli_original_vehicles_boats_1.png	D	0	0	0	198.21929139999	198.419302999973
164.903	0.2	81	2	1	3	9	5	1	0	0	0	stim006_stimuli_original_animals_fish_2.png	B	0	0	0	198.619300099963	198.819297299953
165.303	0.2	82	2	1	3	10	8	4	1	0	0	stim009_stimuli_original_vehicles_boats_1.png	E	0	0	0	199.019305499969	199.219305099978
165.703	0.2	83	2	1	3	11	3	8	0	0	0	stim004_stimuli_original_animals_birds_4.png	K	0	0	0	199.419316999963	199.61931499996
166.103	0.2	84	2	1	3	12	4	11	0	0	0	stim005_stimuli_original_animals_fish_1.png	R	0	0	0	199.819331599982	200.019327499962
166.503	0.2	85	2	1	3	13	7	5	0	0	0	stim008_stimuli_original_animals_fish_4.png	F	0	0	0	200.219337899995	200.419362599961
166.903	0.2	86	2	1	3	14	12	0	0	0	0	stim013_stimuli_original_vehicles_planes_1.png	A	0	0	0	200.619347099971	200.819346199976
167.303	0.2	87	2	1	3	15	10	2	0	0	0	stim011_stimuli_original_vehicles_boats_3.png	C	0	0	0	201.019373399962	201.219356899965
167.703	0.2	88	2	1	3	16	8	6	0	0	0	stim009_stimuli_original_vehicles_boats_1.png	G	0	0	0	201.419371499971	201.619368999964
168.103	0.2	89	2	1	3	17	13	7	0	0	0	stim014_stimuli_original_vehicles_planes_2.png	J	0	0	0	201.819381599955	202.019403299957
168.503	0.2	90	2	1	3	18	7	13	0	0	0	stim008_stimuli_original_animals_fish_4.png	U	0	0	0	202.219390099985	202.419390499999
168.903	0.2	91	2	1	3	19	6	8	0	0	0	stim007_stimuli_original_animals_fish_3.png	K	0	0	0	202.619398599956	202.819399199972
169.303	0.2	92	2	1	3	20	2	10	0	0	0	stim003_stimuli_original_animals_birds_3.png	Q	0	0	0	203.019435299968	203.219409399957
169.703	0.2	93	2	1	3	21	0	12	0	0	0	stim001_stimuli_original_animals_birds_1.png	T	0	0	0	203.419420599996	203.619422499964
170.103	0.2	94	2	1	3	22	5	7	0	0	0	stim006_stimuli_original_animals_fish_2.png	J	0	0	0	203.819430099975	204.019432799949
170.503	0.2	95	2	1	3	23	11	4	0	0	0	stim012_stimuli_original_vehicles_boats_4.png	E	0	0	0	204.219441999972	204.41944009997
170.903	0.2	96	2	1	3	24	8	3	0	0	0	stim009_stimuli_original_vehicles_boats_1.png	D	0	0	0	204.619452099956	204.819449300005
171.303	0.2	97	2	1	3	25	4	8	0	1	0	stim005_stimuli_original_animals_fish_1.png	K	0	0	0	205.019461599994	205.219461300003
171.703	0.2	98	2	1	3	26	1	5	0	0	0	stim002_stimuli_original_animals_birds_2.png	F	0	0	0	205.41947339999	205.619481600006
172.103	0.2	99	2	1	3	27	3	8	0	1	1	stim004_stimuli_original_animals_birds_4.png	K	NaN	206.011279399972	1	205.819484199979	206.019484199991
172.503	0.2	100	2	1	3	28	5	15	1	0	0	stim006_stimuli_original_animals_fish_2.png	Y	0	0	0	206.219495099969	206.419492899964
172.903	0.2	101	2	1	3	29	10	2	0	0	0	stim011_stimuli_original_vehicles_boats_3.png	C	NaN	206.811326799972	1	206.619505599956	206.819507399981
173.303	0.2	102	2	1	3	30	5	9	1	0	0	stim006_stimuli_original_animals_fish_2.png	L	0	0	0	207.019515399996	207.219512199983
173.703	0.2	103	2	1	3	31	12	1	0	0	0	stim013_stimuli_original_vehicles_planes_1.png	B	0	0	0	207.419522799959	207.619524999987
174.103	0.2	104	2	1	3	32	14	6	0	0	0	stim015_stimuli_original_vehicles_planes_3.png	G	0	0	0	207.819561799988	208.01953629998
174.503	0.2	105	2	1	3	33	13	14	0	0	0	stim014_stimuli_original_vehicles_planes_2.png	V	0	0	0	208.219547499961	208.419598799956
174.903	0.2	106	2	1	3	34	9	11	0	0	0	stim010_stimuli_original_vehicles_boats_2.png	R	0	0	0	208.619551399956	208.819549599953
175.303	0.2	107	2	1	3	35	15	0	0	0	0	stim016_stimuli_original_vehicles_planes_4.png	A	0	0	0	209.019578699954	209.219581499987
178.953	0.2	108	3	0	29	0	9	0	0	0	0	stim010_stimuli_original_vehicles_boats_2.png	A	0	0	0	212.669676699967	212.869670399989
179.353	0.2	109	3	0	29	1	15	3	0	0	0	stim016_stimuli_original_vehicles_planes_4.png	D	0	0	0	213.069686400006	213.269679899968
179.753	0.2	110	3	0	29	2	2	15	0	0	0	stim003_stimuli_original_animals_birds_3.png	Y	0	0	0	213.469697799999	213.669704
180.153	0.2	111	3	0	29	3	8	9	0	0	0	stim009_stimuli_original_vehicles_boats_1.png	L	0	0	0	213.869719399954	214.069703499961
180.553	0.2	112	3	0	29	4	0	1	0	0	0	stim001_stimuli_original_animals_birds_1.png	B	0	0	0	214.269718699972	214.469714799954
180.953	0.2	113	3	0	29	5	14	4	0	0	0	stim015_stimuli_original_vehicles_planes_3.png	E	0	0	0	214.669728199951	214.869729999977
181.353	0.2	114	3	0	29	6	4	6	0	0	0	stim005_stimuli_original_animals_fish_1.png	G	0	0	0	215.069734299963	215.269736499991
181.753	0.2	115	3	0	29	7	0	5	1	0	0	stim001_stimuli_original_animals_birds_1.png	F	0	0	0	215.469743399997	215.669743099948
182.153	0.2	116	3	0	29	8	7	2	0	0	0	stim008_stimuli_original_animals_fish_4.png	C	0	0	0	215.869755199994	216.06975189998
182.553	0.2	117	3	0	29	9	0	13	1	0	1	stim001_stimuli_original_animals_birds_1.png	U	0	0	0	216.269765499979	216.469770299969
182.953	0.2	118	3	0	29	10	3	7	0	0	0	stim004_stimuli_original_animals_birds_4.png	J	0	0	0	216.669772900001	216.86977499997
183.353	0.2	119	3	0	29	11	12	15	0	1	0	stim013_stimuli_original_vehicles_planes_1.png	Y	0	0	0	217.06978609995	217.269787699974
183.753	0.2	120	3	0	29	12	10	12	0	0	0	stim011_stimuli_original_vehicles_boats_3.png	T	0	0	0	217.46979459998	217.669795199996
184.153	0.2	121	3	0	29	13	11	15	0	1	0	stim012_stimuli_original_vehicles_boats_4.png	Y	0	0	0	217.869807099982	218.069807699998
184.553	0.2	122	3	0	29	14	6	11	0	0	0	stim007_stimuli_original_animals_fish_3.png	R	0	0	0	218.269817199965	218.469822899962
184.953	0.2	123	3	0	29	15	13	14	0	0	0	stim014_stimuli_original_vehicles_planes_2.png	V	0	0	0	218.66982739995	218.869825400005
185.353	0.2	124	3	0	29	16	5	10	0	0	0	stim006_stimuli_original_animals_fish_2.png	Q	0	0	0	219.069845899998	219.269837400003
185.753	0.2	125	3	0	29	17	1	8	0	0	0	stim002_stimuli_original_animals_birds_2.png	K	0	0	0	219.469852199953	219.669848199992
186.153	0.2	126	3	0	29	18	8	1	0	0	0	stim009_stimuli_original_vehicles_boats_1.png	B	0	0	0	219.869858699967	220.069858599978
186.553	0.2	127	3	0	29	19	10	5	0	0	0	stim011_stimuli_original_vehicles_boats_3.png	F	0	0	0	220.269869399955	220.469866300002
186.953	0.2	128	3	0	29	20	14	13	0	0	0	stim015_stimuli_original_vehicles_planes_3.png	U	0	0	0	220.669883199967	220.869874999975
187.353	0.2	129	3	0	29	21	11	6	0	0	0	stim012_stimuli_original_vehicles_boats_4.png	G	0	0	0	221.069862000004	221.269888699986
187.753	0.2	130	3	0	29	22	15	11	1	0	0	stim016_stimuli_original_vehicles_planes_4.png	R	0	0	0	221.469901599979	221.669903400005
188.153	0.2	131	3	0	29	23	12	10	0	0	0	stim013_stimuli_original_vehicles_planes_1.png	Q	0	0	0	221.869910999958	222.069911499973
188.553	0.2	132	3	0	29	24	15	12	1	0	1	stim016_stimuli_original_vehicles_planes_4.png	T	0	0	0	222.26994779997	222.469920899952
188.953	0.2	133	3	0	29	25	7	3	0	0	0	stim008_stimuli_original_animals_fish_4.png	D	NaN	222.861748599971	1	222.669933199999	222.86992789997
189.353	0.2	134	3	0	29	26	13	0	0	1	0	stim014_stimuli_original_vehicles_planes_2.png	A	0	0	0	223.069947599957	223.269943499996
189.754	0.2	135	3	0	29	27	2	7	0	0	0	stim003_stimuli_original_animals_birds_3.png	J	0	0	0	223.469954499975	223.669953899982
190.154	0.2	136	3	0	29	28	5	0	0	1	0	stim006_stimuli_original_animals_fish_2.png	A	0	0	0	223.869974499976	224.069961100002
190.554	0.2	137	3	0	29	29	6	4	0	0	0	stim007_stimuli_original_animals_fish_3.png	E	0	0	0	224.269976599957	224.46997039998
190.954	0.2	138	3	0	29	30	4	14	0	0	0	stim005_stimuli_original_animals_fish_1.png	V	0	0	0	224.669982499967	224.869985400001
191.354	0.2	139	3	0	29	31	1	0	0	0	0	stim002_stimuli_original_animals_birds_2.png	A	0	0	0	225.069994199963	225.269994299975
191.754	0.2	140	3	0	29	32	9	8	0	0	0	stim010_stimuli_original_vehicles_boats_2.png	K	0	0	0	225.470005699957	225.6700021
192.154	0.2	141	3	0	29	33	15	2	0	0	0	stim016_stimuli_original_vehicles_planes_4.png	C	0	0	0	225.870018799964	226.070015100006
192.554	0.2	142	3	0	29	34	3	15	0	0	0	stim004_stimuli_original_animals_birds_4.png	Y	0	0	0	226.270025399979	226.470032799989
192.954	0.2	143	3	0	29	35	0	9	0	0	0	stim001_stimuli_original_animals_birds_1.png	L	0	0	0	226.670035899966	226.870033399959
196.654	0.2	144	4	1	20	0	9	1	0	0	0	stim010_stimuli_original_vehicles_boats_2.png	B	0	0	0	230.370113199984	230.570108899963
197.054	0.2	145	4	1	20	1	5	7	0	0	0	stim006_stimuli_original_animals_fish_2.png	J	0	0	0	230.770119099994	230.970145899977
197.454	0.2	146	4	1	20	2	1	0	0	0	0	stim002_stimuli_original_animals_birds_2.png	A	0	0	0	231.170130899991	231.370128299983
197.854	0.2	147	4	1	20	3	0	9	0	0	0	stim001_stimuli_original_animals_birds_1.png	L	0	0	0	231.570152500004	231.770138999971
198.254	0.2	148	4	1	20	4	2	2	0	0	0	stim003_stimuli_original_animals_birds_3.png	C	0	0	0	231.970149899949	232.170148599951
198.654	0.2	149	4	1	20	5	13	4	0	0	0	stim014_stimuli_original_vehicles_planes_2.png	E	0	0	0	232.370160999999	232.5701596
199.054	0.2	150	4	1	20	6	6	6	0	0	0	stim007_stimuli_original_animals_fish_3.png	G	0	0	0	232.770169899974	232.970169399981
199.454	0.2	151	4	1	20	7	12	5	0	0	0	stim013_stimuli_original_vehicles_planes_1.png	F	0	0	0	233.170224000001	233.370179999969
199.854	0.2	152	4	1	20	8	15	13	0	1	0	stim016_stimuli_original_vehicles_planes_4.png	U	0	0	0	233.570203199983	233.770190599957
200.254	0.2	153	4	1	20	9	14	11	0	0	0	stim015_stimuli_original_vehicles_planes_3.png	R	0	0	0	233.97020109999	234.170199999993
200.654	0.2	154	4	1	20	10	12	13	1	1	1	stim013_stimuli_original_vehicles_planes_1.png	U	0	0	0	234.37021329999	234.570211199985
201.054	0.2	155	4	1	20	11	3	8	0	0	0	stim004_stimuli_original_animals_birds_4.png	K	NaN	234.96201769996	1	234.770222099964	234.97022409999
201.454	0.2	156	4	1	20	12	12	15	1	0	0	stim013_stimuli_original_vehicles_planes_1.png	Y	0	0	0	235.170234999969	235.370244599995
201.854	0.2	157	4	1	20	13	10	14	0	0	0	stim011_stimuli_original_vehicles_boats_3.png	V	0	0	0	235.570244100003	235.770264799998
202.254	0.2	158	4	1	20	14	8	3	0	0	0	stim009_stimuli_original_vehicles_boats_1.png	D	0	0	0	235.97025459999	236.170259799983
202.654	0.2	159	4	1	20	15	4	13	0	0	0	stim005_stimuli_original_animals_fish_1.png	U	0	0	0	236.370264499972	236.570268399955
203.054	0.2	160	4	1	20	16	7	10	0	0	0	stim008_stimuli_original_animals_fish_4.png	Q	0	0	0	236.770278899989	236.970288099954
203.454	0.2	161	4	1	20	17	11	12	0	0	0	stim012_stimuli_original_vehicles_boats_4.png	T	0	0	0	237.170285200002	237.370286799967
203.854	0.2	162	4	1	20	18	12	11	0	0	0	stim013_stimuli_original_vehicles_planes_1.png	R	0	0	0	237.570298899955	237.770293999987
204.254	0.2	163	4	1	20	19	10	7	0	0	0	stim011_stimuli_original_vehicles_boats_3.png	J	0	0	0	237.970310399949	238.170312499977
204.654	0.2	164	4	1	20	20	13	4	0	0	0	stim014_stimuli_original_vehicles_planes_2.png	E	0	0	0	238.370344700001	238.570316599973
205.054	0.2	165	4	1	20	21	3	8	0	0	0	stim004_stimuli_original_animals_birds_4.png	K	0	0	0	238.770328199957	238.970340600004
205.454	0.2	166	4	1	20	22	14	10	0	0	0	stim015_stimuli_original_vehicles_planes_3.png	Q	0	0	0	239.170337899996	239.370339199959
205.854	0.2	167	4	1	20	23	15	12	0	1	0	stim016_stimuli_original_vehicles_planes_4.png	T	0	0	0	239.570347599976	239.770346699981
206.254	0.2	168	4	1	20	24	8	3	0	0	0	stim009_stimuli_original_vehicles_boats_1.png	D	0	0	0	239.970358099963	240.17035619996
206.654	0.2	169	4	1	20	25	13	12	1	1	1	stim014_stimuli_original_vehicles_planes_2.png	T	0	0	0	240.370369299955	240.570379099983
207.054	0.2	170	4	1	20	26	11	14	0	0	0	stim012_stimuli_original_vehicles_boats_4.png	V	0	0	0	240.770378099987	240.970401600003
207.454	0.2	171	4	1	20	27	13	15	1	0	0	stim014_stimuli_original_vehicles_planes_2.png	Y	NaN	241.162954300002	1	241.170392700005	241.37039289996
207.854	0.2	172	4	1	20	28	5	12	0	0	0	stim006_stimuli_original_animals_fish_2.png	T	0	0	0	241.570420399948	241.770399299974
208.254	0.2	173	4	1	20	29	6	6	0	0	0	stim007_stimuli_original_animals_fish_3.png	G	0	0	0	241.970409600006	242.170408999955
208.654	0.2	174	4	1	20	30	4	13	0	0	0	stim005_stimuli_original_animals_fish_1.png	U	0	0	0	242.37042209995	242.570419099997
209.054	0.2	175	4	1	20	31	2	2	0	0	0	stim003_stimuli_original_animals_birds_3.png	C	0	0	0	242.770432999998	242.970428999979
209.454	0.2	176	4	1	20	32	9	0	0	0	0	stim010_stimuli_original_vehicles_boats_2.png	A	0	0	0	243.170441399969	243.370441699983
209.854	0.2	177	4	1	20	33	0	1	0	0	0	stim001_stimuli_original_animals_birds_1.png	B	0	0	0	243.570466699952	243.770449799951
210.254	0.2	178	4	1	20	34	7	5	0	0	0	stim008_stimuli_original_animals_fish_4.png	F	0	0	0	243.970464599959	244.170473599981
210.654	0.2	179	4	1	20	35	1	9	0	0	0	stim002_stimuli_original_animals_birds_2.png	L	0	0	0	244.370473099989	244.570471399988
214.321	0.2	180	5	0	15	0	13	13	0	0	0	stim014_stimuli_original_vehicles_planes_2.png	U	0	0	0	248.037259399949	248.237259399961
214.721	0.2	181	5	0	15	1	7	9	0	0	0	stim008_stimuli_original_animals_fish_4.png	L	0	0	0	248.437275099976	248.637271799962
215.121	0.2	182	5	0	15	2	5	1	0	0	0	stim006_stimuli_original_animals_fish_2.png	B	0	0	0	248.83727769996	249.037277699972
215.521	0.2	183	5	0	15	3	9	12	0	0	0	stim010_stimuli_original_vehicles_boats_2.png	T	0	0	0	249.237286099989	249.437286600005
215.921	0.2	184	5	0	15	4	2	11	0	0	0	stim003_stimuli_original_animals_birds_3.png	R	0	0	0	249.637297199981	249.837299000006
216.321	0.2	185	5	0	15	5	3	3	0	0	0	stim004_stimuli_original_animals_birds_4.png	D	0	0	0	250.037311299995	250.237312299956
216.721	0.2	186	5	0	15	6	4	6	0	0	0	stim005_stimuli_original_animals_fish_1.png	G	0	0	0	250.437304299965	250.637318799971
217.121	0.2	187	5	0	15	7	10	5	0	0	0	stim011_stimuli_original_vehicles_boats_3.png	F	0	0	0	250.837329600006	251.037334099994
217.521	0.2	188	5	0	15	8	6	14	0	0	0	stim007_stimuli_original_animals_fish_3.png	V	0	0	0	251.237341400003	251.437336599978
217.921	0.2	189	5	0	15	9	15	8	0	0	0	stim016_stimuli_original_vehicles_planes_4.png	K	0	0	0	251.637351299985	251.837353199953
218.321	0.2	190	5	0	15	10	10	15	1	0	0	stim011_stimuli_original_vehicles_boats_3.png	Y	0	0	0	252.037359199952	252.237359099963
218.721	0.2	191	5	0	15	11	0	7	0	0	0	stim001_stimuli_original_animals_birds_1.png	J	0	0	0	252.437372699962	252.637376800005
219.121	0.2	192	5	0	15	12	10	5	1	1	1	stim011_stimuli_original_vehicles_boats_3.png	F	0	0	0	252.837390400004	253.037416699983
219.521	0.2	193	5	0	15	13	11	10	0	0	0	stim012_stimuli_original_vehicles_boats_4.png	Q	0	0	0	253.237403000006	253.437386799953
219.921	0.2	194	5	0	15	14	1	5	0	1	0	stim002_stimuli_original_animals_birds_2.png	F	0	0	0	253.637407000002	253.837403099984
220.321	0.2	195	5	0	15	15	8	0	0	0	0	stim009_stimuli_original_vehicles_boats_1.png	A	0	0	0	254.037416999985	254.237401499995
220.721	0.2	196	5	0	15	16	12	2	0	0	0	stim013_stimuli_original_vehicles_planes_1.png	C	0	0	0	254.437432199949	254.637424799963
221.121	0.2	197	5	0	15	17	14	4	0	0	0	stim015_stimuli_original_vehicles_planes_3.png	E	0	0	0	254.837440099975	255.037435699953
221.521	0.2	198	5	0	15	18	4	14	0	0	0	stim005_stimuli_original_animals_fish_1.png	V	0	0	0	255.237447799998	255.437449199962
221.921	0.2	199	5	0	15	19	2	12	0	0	0	stim003_stimuli_original_animals_birds_3.png	T	0	0	0	255.637457899982	255.837447599974
222.321	0.2	200	5	0	15	20	0	8	0	0	0	stim001_stimuli_original_animals_birds_1.png	K	0	0	0	256.037472900003	256.237467099971
222.721	0.2	201	5	0	15	21	5	1	1	0	0	stim006_stimuli_original_animals_fish_2.png	B	0	0	0	256.437455499952	256.637452900002
223.121	0.2	202	5	0	15	22	10	11	0	0	0	stim011_stimuli_original_vehicles_boats_3.png	R	0	0	0	256.83746239997	257.037462299981
223.521	0.2	203	5	0	15	23	5	10	1	1	1	stim006_stimuli_original_animals_fish_2.png	Q	0	0	0	257.237474199967	257.437471699959
223.921	0.2	204	5	0	15	24	7	0	0	0	0	stim008_stimuli_original_animals_fish_4.png	A	0	0	0	257.63748689997	257.837484399963
224.321	0.2	205	5	0	15	25	15	10	0	1	0	stim016_stimuli_original_vehicles_planes_4.png	Q	NaN	258.030067099957	1	258.037494699995	258.237493399996
224.721	0.2	206	5	0	15	26	8	15	0	0	0	stim009_stimuli_original_vehicles_boats_1.png	Y	0	0	0	258.437506899994	258.63750479999
225.121	0.2	207	5	0	15	27	14	6	0	0	0	stim015_stimuli_original_vehicles_planes_3.png	G	0	0	0	258.837519599998	259.037525199994
225.521	0.2	208	5	0	15	28	5	10	0	0	0	stim006_stimuli_original_animals_fish_2.png	Q	0	0	0	259.237524800003	259.437540399958
225.921	0.2	209	5	0	15	29	6	4	0	0	0	stim007_stimuli_original_animals_fish_3.png	E	0	0	0	259.637547199964	259.837537899963
226.321	0.2	210	5	0	15	30	3	3	0	0	0	stim004_stimuli_original_animals_birds_4.png	D	0	0	0	260.037557000003	260.237556199951
226.721	0.2	211	5	0	15	31	11	2	0	0	0	stim012_stimuli_original_vehicles_boats_4.png	C	0	0	0	260.437570099952	260.637569399958
227.121	0.2	212	5	0	15	32	12	9	0	0	0	stim013_stimuli_original_vehicles_planes_1.png	L	0	0	0	260.837577999977	261.0375795
227.521	0.2	213	5	0	15	33	1	5	0	0	0	stim002_stimuli_original_animals_birds_2.png	F	0	0	0	261.237590499979	261.43757889996
227.921	0.2	214	5	0	15	34	9	7	0	0	0	stim010_stimuli_original_vehicles_boats_2.png	J	0	0	0	261.637599899957	261.837588499999
228.321	0.2	215	5	0	15	35	13	13	0	0	0	stim014_stimuli_original_vehicles_planes_2.png	U	0	0	0	262.037600599986	262.237596499966
231.455	0.2	216	6	1	36	0	5	5	0	0	0	stim006_stimuli_original_animals_fish_2.png	F	0	0	0	265.171049099998	265.37104399997
231.855	0.2	217	6	1	36	1	0	4	0	0	0	stim001_stimuli_original_animals_birds_1.png	E	0	0	0	265.571062300005	265.771054199955
232.255	0.2	218	6	1	36	2	7	9	0	0	0	stim008_stimuli_original_animals_fish_4.png	L	0	0	0	265.971035399998	266.171067699965
232.655	0.2	219	6	1	36	3	2	11	0	0	0	stim003_stimuli_original_animals_birds_3.png	R	0	0	0	266.371086500003	266.571059699985
233.055	0.2	220	6	1	36	4	13	10	0	0	0	stim014_stimuli_original_vehicles_planes_2.png	Q	0	0	0	266.771086099965	266.971082999953
233.455	0.2	221	6	1	36	5	8	3	0	1	0	stim009_stimuli_original_vehicles_boats_1.png	D	0	0	0	267.171102199994	267.371096699964
233.855	0.2	222	6	1	36	6	11	8	0	0	0	stim012_stimuli_original_vehicles_boats_4.png	K	0	0	0	267.571107299998	267.771106
234.255	0.2	223	6	1	36	7	15	3	0	1	1	stim016_stimuli_original_vehicles_planes_4.png	D	0	0	0	267.971115699969	268.171120999963
234.655	0.2	224	6	1	36	8	8	6	1	0	0	stim009_stimuli_original_vehicles_boats_1.png	G	0	0	0	268.371128599974	268.571111599973
235.055	0.2	225	6	1	36	9	14	2	0	0	0	stim015_stimuli_original_vehicles_planes_3.png	C	NaN	268.763750099984	1	268.771139299963	268.971161999973
235.455	0.2	226	6	1	36	10	8	7	1	0	0	stim009_stimuli_original_vehicles_boats_1.png	J	0	0	0	269.171153599978	269.371146499994
235.855	0.2	227	6	1	36	11	1	12	0	0	0	stim002_stimuli_original_animals_birds_2.png	T	0	0	0	269.571157799975	269.77115689998
236.255	0.2	228	6	1	36	12	4	13	0	0	0	stim005_stimuli_original_animals_fish_1.png	U	0	0	0	269.971172999998	270.171168399975
236.655	0.2	229	6	1	36	13	12	3	0	0	0	stim013_stimuli_original_vehicles_planes_1.png	D	0	0	0	270.371184499993	270.571184
237.055	0.2	230	6	1	36	14	9	15	0	0	0	stim010_stimuli_original_vehicles_boats_2.png	Y	0	0	0	270.77119109995	270.971191399964
237.455	0.2	231	6	1	36	15	6	0	0	0	0	stim007_stimuli_original_animals_fish_3.png	A	0	0	0	271.171219299955	271.371201699949
237.855	0.2	232	6	1	36	16	3	14	0	0	0	stim004_stimuli_original_animals_birds_4.png	V	0	0	0	271.571210099966	271.771200299961
238.255	0.2	233	6	1	36	17	10	1	0	0	0	stim011_stimuli_original_vehicles_boats_3.png	B	0	0	0	271.971219300001	272.171219199954
238.655	0.2	234	6	1	36	18	1	10	0	0	0	stim002_stimuli_original_animals_birds_2.png	Q	0	0	0	272.371230199991	272.571238399949
239.055	0.2	235	6	1	36	19	14	3	0	0	0	stim015_stimuli_original_vehicles_planes_3.png	D	0	0	0	272.771248799982	272.971238999977
239.455	0.2	236	6	1	36	20	0	6	0	0	0	stim001_stimuli_original_animals_birds_1.png	G	0	0	0	273.171253599983	273.371231099998
239.855	0.2	237	6	1	36	21	15	9	0	0	0	stim016_stimuli_original_vehicles_planes_4.png	L	0	0	0	273.571264199971	273.771270299971
240.255	0.2	238	6	1	36	22	3	12	0	0	0	stim004_stimuli_original_animals_birds_4.png	T	0	0	0	273.971272099996	274.171259599971
240.655	0.2	239	6	1	36	23	13	4	0	0	0	stim014_stimuli_original_vehicles_planes_2.png	E	0	0	0	274.371286499954	274.571283400001
241.055	0.2	240	6	1	36	24	12	1	0	0	0	stim013_stimuli_original_vehicles_planes_1.png	B	0	0	0	274.77129449998	274.971303500002
241.455	0.2	241	6	1	36	25	7	8	0	1	0	stim008_stimuli_original_animals_fish_4.png	K	0	0	0	275.171302999952	275.371308699949
241.855	0.2	242	6	1	36	26	2	14	0	0	0	stim003_stimuli_original_animals_birds_3.png	V	0	0	0	275.571316999965	275.771312600002
242.255	0.2	243	6	1	36	27	6	8	0	1	1	stim007_stimuli_original_animals_fish_3.png	K	0	0	0	275.971327399951	276.171324399998
242.655	0.2	244	6	1	36	28	3	15	1	0	0	stim004_stimuli_original_animals_birds_4.png	Y	0	0	0	276.371340599959	276.571338599955
243.055	0.2	245	6	1	36	29	8	11	0	0	0	stim009_stimuli_original_vehicles_boats_1.png	R	NaN	276.7638898	1	276.771345999965	276.971346999984
243.455	0.2	246	6	1	36	30	3	8	1	0	0	stim004_stimuli_original_animals_birds_4.png	K	0	0	0	277.171360299981	277.371358899982
243.855	0.2	247	6	1	36	31	10	13	0	0	0	stim011_stimuli_original_vehicles_boats_3.png	U	0	0	0	277.571352300001	277.771366500005
244.255	0.2	248	6	1	36	32	11	2	0	0	0	stim012_stimuli_original_vehicles_boats_4.png	C	0	0	0	277.971375099965	278.171379299951
244.655	0.2	249	6	1	36	33	9	7	0	0	0	stim010_stimuli_original_vehicles_boats_2.png	J	NaN	278.364028899989	0	278.37138919998	278.571364499978
245.055	0.2	250	6	1	36	34	4	0	0	0	0	stim005_stimuli_original_animals_fish_1.png	A	0	0	0	278.771398499957	278.97139989998
245.455	0.2	251	6	1	36	35	5	5	0	0	0	stim006_stimuli_original_animals_fish_2.png	F	0	0	0	279.171407099988	279.371408699953
250.538	0.2	252	7	0	22	0	2	13	0	0	0	stim003_stimuli_original_animals_birds_3.png	U	0	0	0	284.254844199982	284.45485129999
250.938	0.2	253	7	0	22	1	1	5	0	0	0	stim002_stimuli_original_animals_birds_2.png	F	0	0	0	284.65485219995	284.854850300006
251.338	0.2	254	7	0	22	2	7	12	0	0	0	stim008_stimuli_original_animals_fish_4.png	T	0	0	0	285.054864000005	285.254859899986
251.738	0.2	255	7	0	22	3	0	14	0	0	0	stim001_stimuli_original_animals_birds_1.png	V	0	0	0	285.454875700001	285.654870599974
252.138	0.2	256	7	0	22	4	15	4	0	0	0	stim016_stimuli_original_vehicles_planes_4.png	E	0	0	0	285.854881099949	286.054884299985
252.538	0.2	257	7	0	22	5	2	0	1	0	0	stim003_stimuli_original_animals_birds_3.png	A	0	0	0	286.254892299999	286.454905499995
252.938	0.2	258	7	0	22	6	3	15	0	0	0	stim004_stimuli_original_animals_birds_4.png	Y	0	0	0	286.654902599985	286.854901199986
253.339	0.2	259	7	0	22	7	2	6	1	0	1	stim003_stimuli_original_animals_birds_3.png	G	0	0	0	287.054912999971	287.254914199992
253.739	0.2	260	7	0	22	8	5	1	0	0	0	stim006_stimuli_original_animals_fish_2.png	B	NaN	287.646717900003	1	287.454923099955	287.654933499987
254.139	0.2	261	7	0	22	9	9	8	0	0	0	stim010_stimuli_original_vehicles_boats_2.png	K	0	0	0	287.854935199954	288.0549321
254.539	0.2	262	7	0	22	10	13	10	0	0	0	stim014_stimuli_original_vehicles_planes_2.png	Q	0	0	0	288.254945099994	288.454956599977
254.939	0.2	263	7	0	22	11	8	7	0	0	0	stim009_stimuli_original_vehicles_boats_1.png	J	0	0	0	288.654956999992	288.85495269997
255.339	0.2	264	7	0	22	12	10	6	0	1	0	stim011_stimuli_original_vehicles_boats_3.png	G	0	0	0	289.05496639997	289.254963399959
255.739	0.2	265	7	0	22	13	11	3	0	0	0	stim012_stimuli_original_vehicles_boats_4.png	D	0	0	0	289.454975000001	289.654975399957
256.139	0.2	266	7	0	22	14	12	6	0	1	0	stim013_stimuli_original_vehicles_planes_1.png	G	0	0	0	289.854984599981	290.054985099996
256.539	0.2	267	7	0	22	15	6	9	0	0	0	stim007_stimuli_original_animals_fish_3.png	L	0	0	0	290.254996599979	290.454995599983
256.939	0.2	268	7	0	22	16	14	11	0	0	0	stim015_stimuli_original_vehicles_planes_3.png	R	0	0	0	290.65500509995	290.855010300002
257.339	0.2	269	7	0	22	17	4	2	0	0	0	stim005_stimuli_original_animals_fish_1.png	C	0	0	0	291.05501989997	291.255024099955
257.739	0.2	270	7	0	22	18	2	4	0	0	0	stim003_stimuli_original_animals_birds_3.png	E	NaN	291.64682319999	0	291.45502709999	291.655040299986
258.139	0.2	271	7	0	22	19	11	14	0	0	0	stim012_stimuli_original_vehicles_boats_4.png	V	0	0	0	291.855051499966	292.055035999976
258.539	0.2	272	7	0	22	20	9	6	0	0	0	stim010_stimuli_original_vehicles_boats_2.png	G	0	0	0	292.255052199995	292.45505769999
258.939	0.2	273	7	0	22	21	6	12	1	0	0	stim007_stimuli_original_animals_fish_3.png	T	0	0	0	292.655058000004	292.855056800006
259.339	0.2	274	7	0	22	22	3	11	0	0	0	stim004_stimuli_original_animals_birds_4.png	R	0	0	0	293.055068199988	293.255068800005
259.739	0.2	275	7	0	22	23	6	10	1	0	1	stim007_stimuli_original_animals_fish_3.png	Q	0	0	0	293.455080399988	293.655078199983
260.139	0.2	276	7	0	22	24	7	8	0	0	0	stim008_stimuli_original_animals_fish_4.png	K	NaN	294.046885599964	1	293.855090499972	294.055100099999
260.539	0.2	277	7	0	22	25	10	13	0	0	0	stim011_stimuli_original_vehicles_boats_3.png	U	0	0	0	294.255100999959	294.455113100004
260.939	0.2	278	7	0	22	26	8	9	0	0	0	stim009_stimuli_original_vehicles_boats_1.png	L	0	0	0	294.655113899964	294.855112099962
261.339	0.2	279	7	0	22	27	1	5	0	0	0	stim002_stimuli_original_animals_birds_2.png	F	0	0	0	295.055121299985	295.25512039999
261.739	0.2	280	7	0	22	28	6	2	0	1	0	stim007_stimuli_original_animals_fish_3.png	C	0	0	0	295.455137099954	295.655131199979
262.139	0.2	281	7	0	22	29	15	3	0	0	0	stim016_stimuli_original_vehicles_planes_4.png	D	0	0	0	295.855141499953	296.055141399964
262.539	0.2	282	7	0	22	30	0	2	0	1	0	stim001_stimuli_original_animals_birds_1.png	C	0	0	0	296.255153799953	296.455151000002
262.939	0.2	283	7	0	22	31	4	15	0	0	0	stim005_stimuli_original_animals_fish_1.png	Y	0	0	0	296.655163299991	296.855164799956
263.339	0.2	284	7	0	22	32	14	0	0	0	0	stim015_stimuli_original_vehicles_planes_3.png	A	0	0	0	297.05517279997	297.255216299964
263.739	0.2	285	7	0	22	33	12	7	0	0	0	stim013_stimuli_original_vehicles_planes_1.png	J	0	0	0	297.455186999985	297.655182299961
264.139	0.2	286	7	0	22	34	5	1	0	0	0	stim006_stimuli_original_animals_fish_2.png	B	0	0	0	297.855192999996	298.055195599969
264.539	0.2	287	7	0	22	35	13	2	0	0	0	stim014_stimuli_original_vehicles_planes_2.png	C	0	0	0	298.255204099987	298.455204900005
267.122	0.2	288	8	1	38	0	9	8	0	0	0	stim010_stimuli_original_vehicles_boats_2.png	K	0	0	0	300.838623399963	301.038617999991
267.522	0.2	289	8	1	38	1	5	4	0	0	0	stim006_stimuli_original_animals_fish_2.png	E	0	0	0	301.238631099986	301.438616999949
267.922	0.2	290	8	1	38	2	8	2	0	0	0	stim009_stimuli_original_vehicles_boats_1.png	C	0	0	0	301.638631899958	301.838628400001
268.322	0.2	291	8	1	38	3	14	1	0	0	0	stim015_stimuli_original_vehicles_planes_3.png	B	0	0	0	302.038638999977	302.238661299984
268.722	0.2	292	8	1	38	4	4	10	0	0	0	stim005_stimuli_original_animals_fish_1.png	Q	0	0	0	302.438650699973	302.638651199988
269.122	0.2	293	8	1	38	5	13	15	0	0	0	stim014_stimuli_original_vehicles_planes_2.png	Y	0	0	0	302.838661399961	303.038657800003
269.522	0.2	294	8	1	38	6	6	0	0	0	0	stim007_stimuli_original_animals_fish_3.png	A	0	0	0	303.238669899991	303.438670899952
269.922	0.2	295	8	1	38	7	1	3	0	0	0	stim002_stimuli_original_animals_birds_2.png	D	0	0	0	303.638696099981	303.838690399949
270.322	0.2	296	8	1	38	8	7	11	0	0	0	stim008_stimuli_original_animals_fish_4.png	R	0	0	0	304.038702299993	304.23868879996
270.722	0.2	297	8	1	38	9	2	13	0	1	0	stim003_stimuli_original_animals_birds_3.png	U	0	0	0	304.438701699954	304.638702999975
271.122	0.2	298	8	1	38	10	1	5	1	0	0	stim002_stimuli_original_animals_birds_2.png	F	0	0	0	304.838711399992	305.038712299953
271.522	0.2	299	8	1	38	11	12	13	0	1	1	stim013_stimuli_original_vehicles_planes_1.png	U	0	0	0	305.238720899972	305.438722299994
271.922	0.2	300	8	1	38	12	1	7	1	0	0	stim002_stimuli_original_animals_birds_2.png	J	0	0	0	305.638735699991	305.838732099975
272.322	0.2	301	8	1	38	13	15	14	0	0	0	stim016_stimuli_original_vehicles_planes_4.png	V	NaN	306.031296500005	1	306.038745399972	306.23874229996
272.722	0.2	302	8	1	38	14	10	13	0	0	0	stim011_stimuli_original_vehicles_boats_3.png	U	0	0	0	306.438753499999	306.638758799993
273.122	0.2	303	8	1	38	15	0	9	0	0	0	stim001_stimuli_original_animals_birds_1.png	L	0	0	0	306.838765599998	307.038762699987
273.522	0.2	304	8	1	38	16	3	6	0	0	0	stim004_stimuli_original_animals_birds_4.png	G	0	0	0	307.238773799967	307.438776499999
273.922	0.2	305	8	1	38	17	11	12	0	0	0	stim012_stimuli_original_vehicles_boats_4.png	T	0	0	0	307.638788499986	307.838784399966
274.322	0.2	306	8	1	38	18	12	11	0	0	0	stim013_stimuli_original_vehicles_planes_1.png	R	0	0	0	308.038793899992	308.238792999997
274.722	0.2	307	8	1	38	19	6	3	0	0	0	stim007_stimuli_original_animals_fish_3.png	D	0	0	0	308.43880459998	308.638807099953
275.122	0.2	308	8	1	38	20	9	0	0	0	0	stim010_stimuli_original_vehicles_boats_2.png	A	0	0	0	308.838813499955	309.038814399973
275.522	0.2	309	8	1	38	21	13	10	0	0	0	stim014_stimuli_original_vehicles_planes_2.png	Q	0	0	0	309.23882769997	309.438828099985
275.922	0.2	310	8	1	38	22	14	15	0	0	0	stim015_stimuli_original_vehicles_planes_3.png	Y	0	0	0	309.638853099954	309.838847699983
276.322	0.2	311	8	1	38	23	7	1	0	1	0	stim008_stimuli_original_animals_fish_4.png	B	0	0	0	310.038862499991	310.23885569995
276.722	0.2	312	8	1	38	24	13	12	1	0	0	stim014_stimuli_original_vehicles_planes_2.png	T	0	0	0	310.438868700003	310.638861899963
277.122	0.2	313	8	1	38	25	5	1	0	1	1	stim006_stimuli_original_animals_fish_2.png	B	0	0	0	310.838868699968	311.038864999951
277.522	0.2	314	8	1	38	26	13	2	1	0	0	stim014_stimuli_original_vehicles_planes_2.png	C	0	0	0	311.238890099979	311.438875399996
277.923	0.2	315	8	1	38	27	11	7	0	0	0	stim012_stimuli_original_vehicles_boats_4.png	J	0	0	0	311.638906199951	311.838903099997
278.323	0.2	316	8	1	38	28	3	1	0	0	0	stim004_stimuli_original_animals_birds_4.png	B	0	0	0	312.038907499984	312.238898299984
278.723	0.2	317	8	1	38	29	0	6	0	0	0	stim001_stimuli_original_animals_birds_1.png	G	NaN	312.639126399998	1	312.438922600006	312.638914399955
279.123	0.2	318	8	1	38	30	15	13	0	0	0	stim016_stimuli_original_vehicles_planes_4.png	U	0	0	0	312.838919500005	313.038940700004
279.523	0.2	319	8	1	38	31	10	4	0	0	0	stim011_stimuli_original_vehicles_boats_3.png	E	0	0	0	313.238929499988	313.438928699994
279.923	0.2	320	8	1	38	32	1	14	0	0	0	stim002_stimuli_original_animals_birds_2.png	V	0	0	0	313.638946499967	313.838940099988
280.323	0.2	321	8	1	38	33	2	8	0	0	0	stim003_stimuli_original_animals_birds_3.png	K	0	0	0	314.038953999989	314.238949099963
280.723	0.2	322	8	1	38	34	4	5	0	0	0	stim005_stimuli_original_animals_fish_1.png	F	0	0	0	314.438962699962	314.6389662
281.123	0.2	323	8	1	38	35	8	9	0	0	0	stim009_stimuli_original_vehicles_boats_1.png	L	0	0	0	314.838972800004	315.03897309996
285.023	0.2	324	9	0	21	0	13	13	0	0	0	stim014_stimuli_original_vehicles_planes_2.png	U	0	0	0	318.739097099984	318.939108599967
285.423	0.2	325	9	0	21	1	14	8	0	0	0	stim015_stimuli_original_vehicles_planes_3.png	K	0	0	0	319.13909479999	319.339097299962
285.823	0.2	326	9	0	21	2	1	6	0	0	0	stim002_stimuli_original_animals_birds_2.png	G	0	0	0	319.539104299969	319.739101999963
286.223	0.2	327	9	0	21	3	9	11	0	0	0	stim010_stimuli_original_vehicles_boats_2.png	R	0	0	0	319.93911529996	320.139113699959
286.623	0.2	328	9	0	21	4	6	12	0	0	0	stim007_stimuli_original_animals_fish_3.png	T	0	0	0	320.339127199957	320.539116200001
287.023	0.2	329	9	0	21	5	5	15	0	0	0	stim006_stimuli_original_animals_fish_2.png	Y	0	0	0	320.739136299992	320.939148899983
287.423	0.2	330	9	0	21	6	11	3	0	0	0	stim012_stimuli_original_vehicles_boats_4.png	D	0	0	0	321.139145799971	321.339134899958
287.823	0.2	331	9	0	21	7	4	0	0	0	0	stim005_stimuli_original_animals_fish_1.png	A	0	0	0	321.539165499969	321.739155399962
288.223	0.2	332	9	0	21	8	10	14	0	0	0	stim011_stimuli_original_vehicles_boats_3.png	V	0	0	0	321.939165899996	322.139189199952
288.623	0.2	333	9	0	21	9	15	11	1	1	0	stim016_stimuli_original_vehicles_planes_4.png	R	0	0	0	322.339177099988	322.539175299986
289.023	0.2	334	9	0	21	10	7	2	0	0	0	stim008_stimuli_original_animals_fish_4.png	C	0	0	0	322.739186499966	322.939190999954
289.423	0.2	335	9	0	21	11	15	11	1	1	1	stim016_stimuli_original_vehicles_planes_4.png	R	0	0	0	323.139190099959	323.339189099963
289.823	0.2	336	9	0	21	12	8	1	0	0	0	stim009_stimuli_original_vehicles_boats_1.png	B	0	0	0	323.539224199951	323.739207499952
290.223	0.2	337	9	0	21	13	3	5	0	0	0	stim004_stimuli_original_animals_birds_4.png	F	NaN	324.131003099959	1	323.93920839997	324.139213299961
290.623	0.2	338	9	0	21	14	0	10	0	0	0	stim001_stimuli_original_animals_birds_1.png	Q	0	0	0	324.339233000006	324.539227299974
291.023	0.2	339	9	0	21	15	15	4	0	0	0	stim016_stimuli_original_vehicles_planes_4.png	E	0	0	0	324.739239999966	324.939229599957
291.423	0.2	340	9	0	21	16	12	9	0	0	0	stim013_stimuli_original_vehicles_planes_1.png	L	0	0	0	325.139253599977	325.339253199985
291.823	0.2	341	9	0	21	17	2	7	0	0	0	stim003_stimuli_original_animals_birds_3.png	J	0	0	0	325.539261400001	325.739262799965
292.223	0.2	342	9	0	21	18	7	2	0	0	0	stim008_stimuli_original_animals_fish_4.png	C	0	0	0	325.939276099962	326.139283599972
292.623	0.2	343	9	0	21	19	9	12	0	0	0	stim010_stimuli_original_vehicles_boats_2.png	T	0	0	0	326.339310199954	326.539280499972
293.023	0.2	344	9	0	21	20	4	15	0	0	0	stim005_stimuli_original_animals_fish_1.png	Y	0	0	0	326.73929529998	326.939280599996
293.423	0.2	345	9	0	21	21	10	0	0	0	0	stim011_stimuli_original_vehicles_boats_3.png	A	0	0	0	327.139302900003	327.339291299984
293.823	0.2	346	9	0	21	22	5	3	0	0	0	stim006_stimuli_original_animals_fish_2.png	D	0	0	0	327.539311099972	327.739312199992
294.223	0.2	347	9	0	21	23	1	8	0	0	0	stim002_stimuli_original_animals_birds_2.png	K	0	0	0	327.939345599967	328.139343799965
294.623	0.2	348	9	0	21	24	11	15	1	1	0	stim012_stimuli_original_vehicles_boats_4.png	Y	0	0	0	328.339371399954	328.539351199986
295.023	0.2	349	9	0	21	25	2	7	0	0	0	stim003_stimuli_original_animals_birds_3.png	J	0	0	0	328.739347599971	328.93936259998
295.423	0.2	350	9	0	21	26	11	15	1	1	1	stim012_stimuli_original_vehicles_boats_4.png	Y	0	0	0	329.139373599959	329.33936089999
295.823	0.2	351	9	0	21	27	14	10	0	0	0	stim015_stimuli_original_vehicles_planes_3.png	Q	0	0	0	329.539385299955	329.739385199966
296.223	0.2	352	9	0	21	28	0	4	0	0	0	stim001_stimuli_original_animals_birds_1.png	E	0	0	0	329.939395699999	330.139396499959
296.623	0.2	353	9	0	21	29	3	11	0	0	0	stim004_stimuli_original_animals_birds_4.png	R	0	0	0	330.339402999962	330.539392399951
297.023	0.2	354	9	0	21	30	15	5	0	0	0	stim016_stimuli_original_vehicles_planes_4.png	F	0	0	0	330.739414199954	330.939422199968
297.423	0.2	355	9	0	21	31	12	6	0	0	0	stim013_stimuli_original_vehicles_planes_1.png	G	0	0	0	331.139426999958	331.339423700003
297.823	0.2	356	9	0	21	32	11	9	0	0	0	stim012_stimuli_original_vehicles_boats_4.png	L	0	0	0	331.53943569999	331.739437299955
298.223	0.2	357	9	0	21	33	6	1	0	0	0	stim007_stimuli_original_animals_fish_3.png	B	0	0	0	331.939447299985	332.139448699949
298.623	0.2	358	9	0	21	34	8	14	0	0	0	stim009_stimuli_original_vehicles_boats_1.png	V	0	0	0	332.339457499969	332.539456799976
299.023	0.2	359	9	0	21	35	13	13	0	0	0	stim014_stimuli_original_vehicles_planes_2.png	U	0	0	0	332.739468799962	332.939466199954
302.623	0.2	360	10	1	12	0	2	12	0	0	0	stim003_stimuli_original_animals_birds_3.png	T	0	0	0	336.339556399966	336.539542499988
303.023	0.2	361	10	1	12	1	7	0	0	0	0	stim008_stimuli_original_animals_fish_4.png	A	0	0	0	336.739568899968	336.939537499973
303.423	0.2	362	10	1	12	2	8	3	0	0	0	stim009_stimuli_original_vehicles_boats_1.png	D	0	0	0	337.139573099965	337.3395762
303.823	0.2	363	10	1	12	3	9	8	0	0	0	stim010_stimuli_original_vehicles_boats_2.png	K	0	0	0	337.539586099971	337.739585199975
304.223	0.2	364	10	1	12	4	14	7	0	0	0	stim015_stimuli_original_vehicles_planes_3.png	J	0	0	0	337.9395946	338.139599599992
304.623	0.2	365	10	1	12	5	5	10	0	1	0	stim006_stimuli_original_animals_fish_2.png	Q	0	0	0	338.33960549999	338.539611499989
305.023	0.2	366	10	1	12	6	15	6	0	0	0	stim016_stimuli_original_vehicles_planes_4.png	G	0	0	0	338.739618299995	338.939618699951
305.423	0.2	367	10	1	12	7	11	10	1	1	1	stim012_stimuli_original_vehicles_boats_4.png	Q	0	0	0	339.139630699996	339.33963339997
305.823	0.2	368	10	1	12	8	3	9	0	0	0	stim004_stimuli_original_animals_birds_4.png	L	0	0	0	339.539637499955	339.739637199964
306.223	0.2	369	10	1	12	9	11	1	1	0	0	stim012_stimuli_original_vehicles_boats_4.png	B	NaN	340.13144279999	1	339.939649799955	340.139651099977
306.623	0.2	370	10	1	12	10	10	2	0	0	0	stim011_stimuli_original_vehicles_boats_3.png	C	0	0	0	340.339660500002	340.539658900001
307.023	0.2	371	10	1	12	11	13	10	0	0	0	stim014_stimuli_original_vehicles_planes_2.png	Q	0	0	0	340.739671799995	340.939654099988
307.423	0.2	372	10	1	12	12	4	14	0	0	0	stim005_stimuli_original_animals_fish_1.png	V	0	0	0	341.139679199958	341.339678399963
307.823	0.2	373	10	1	12	13	11	4	0	0	0	stim012_stimuli_original_vehicles_boats_4.png	E	0	0	0	341.539692299964	341.739692099974
308.223	0.2	374	10	1	12	14	12	5	0	0	0	stim013_stimuli_original_vehicles_planes_1.png	F	0	0	0	341.939704099961	342.139703599969
308.623	0.2	375	10	1	12	15	6	15	0	0	0	stim007_stimuli_original_animals_fish_3.png	Y	0	0	0	342.339712299989	342.539710799989
309.023	0.2	376	10	1	12	16	1	13	0	0	0	stim002_stimuli_original_animals_birds_2.png	U	0	0	0	342.739722999977	342.939722599986
309.423	0.2	377	10	1	12	17	0	11	0	0	0	stim001_stimuli_original_animals_birds_1.png	R	0	0	0	343.139737299993	343.339731399959
309.823	0.2	378	10	1	12	18	11	0	0	0	0	stim012_stimuli_original_vehicles_boats_4.png	A	0	0	0	343.539743000001	343.739739399985
310.223	0.2	379	10	1	12	19	13	1	0	0	0	stim014_stimuli_original_vehicles_planes_2.png	B	0	0	0	343.939756299951	344.139751899987
310.623	0.2	380	10	1	12	20	15	6	0	0	0	stim016_stimuli_original_vehicles_planes_4.png	G	0	0	0	344.339749799983	344.53976689995
311.023	0.2	381	10	1	12	21	5	12	0	0	0	stim006_stimuli_original_animals_fish_2.png	T	0	0	0	344.739774999965	344.939782499976
311.423	0.2	382	10	1	12	22	4	11	0	0	0	stim005_stimuli_original_animals_fish_1.png	R	0	0	0	345.139787899971	345.339779599977
311.823	0.2	383	10	1	12	23	14	4	0	0	0	stim015_stimuli_original_vehicles_planes_3.png	E	0	0	0	345.539795399993	345.739792399982
312.223	0.2	384	10	1	12	24	10	13	0	0	0	stim011_stimuli_original_vehicles_boats_3.png	U	NaN	346.131629499956	0	345.939805499977	346.139806099993
312.623	0.2	385	10	1	12	25	2	10	0	0	0	stim003_stimuli_original_animals_birds_3.png	Q	0	0	0	346.339816299966	346.539818699996
313.023	0.2	386	10	1	12	26	1	11	0	1	0	stim002_stimuli_original_animals_birds_2.png	R	0	0	0	346.739826799952	346.939848099952
313.423	0.2	387	10	1	12	27	9	3	0	0	0	stim010_stimuli_original_vehicles_boats_2.png	D	0	0	0	347.139842299977	347.339837999956
313.823	0.2	388	10	1	12	28	10	11	1	1	1	stim011_stimuli_original_vehicles_boats_3.png	R	0	0	0	347.539845999971	347.739845799981
314.223	0.2	389	10	1	12	29	6	15	0	0	0	stim007_stimuli_original_animals_fish_3.png	Y	NaN	348.13163259998	1	347.939842699969	348.139856699971
314.624	0.2	390	10	1	12	30	10	5	1	0	0	stim011_stimuli_original_vehicles_boats_3.png	F	0	0	0	348.339868099953	348.539869099972
315.024	0.2	391	10	1	12	31	7	14	0	0	0	stim008_stimuli_original_animals_fish_4.png	V	0	0	0	348.739881599962	348.939877600002
315.424	0.2	392	10	1	12	32	8	9	0	0	0	stim009_stimuli_original_vehicles_boats_1.png	L	0	0	0	349.139890599996	349.33989199996
315.824	0.2	393	10	1	12	33	3	8	0	0	0	stim004_stimuli_original_animals_birds_4.png	K	0	0	0	349.539897699957	349.739894500002
316.224	0.2	394	10	1	12	34	0	7	0	0	0	stim001_stimuli_original_animals_birds_1.png	J	0	0	0	349.939909299952	350.139908999961
316.624	0.2	395	10	1	12	35	12	2	0	0	0	stim013_stimuli_original_vehicles_planes_1.png	C	0	0	0	350.339912099997	350.539904899953
320.974	0.2	396	11	0	31	0	1	7	0	0	0	stim002_stimuli_original_animals_birds_2.png	J	0	0	0	354.690010699967	354.890007899958
321.374	0.2	397	11	0	31	1	7	4	0	0	0	stim008_stimuli_original_animals_fish_4.png	E	0	0	0	355.090022599965	355.290061199979
321.774	0.2	398	11	0	31	2	6	0	0	0	0	stim007_stimuli_original_animals_fish_3.png	A	0	0	0	355.490041299956	355.690043099981
322.174	0.2	399	11	0	31	3	8	2	0	0	0	stim009_stimuli_original_vehicles_boats_1.png	C	0	0	0	355.8900823	356.090048599988
322.574	0.2	400	11	0	31	4	9	6	0	0	0	stim010_stimuli_original_vehicles_boats_2.png	G	0	0	0	356.290066399961	356.490063299949
322.974	0.2	401	11	0	31	5	14	10	0	0	0	stim015_stimuli_original_vehicles_planes_3.png	Q	0	0	0	356.690071599965	356.890073199989
323.374	0.2	402	11	0	31	6	4	11	0	0	0	stim005_stimuli_original_animals_fish_1.png	R	0	0	0	357.090081999952	357.29008419998
323.774	0.2	403	11	0	31	7	15	12	0	0	0	stim016_stimuli_original_vehicles_planes_4.png	T	0	0	0	357.490093700006	357.690091700002
324.174	0.2	404	11	0	31	8	2	5	0	0	0	stim003_stimuli_original_animals_birds_3.png	F	0	0	0	357.890136699949	358.090100399975
324.574	0.2	405	11	0	31	9	0	3	0	1	0	stim001_stimuli_original_animals_birds_1.png	D	0	0	0	358.290115499985	358.490132399951
324.974	0.2	406	11	0	31	10	4	15	1	0	0	stim005_stimuli_original_animals_fish_1.png	Y	0	0	0	358.690124099958	358.890121699951
325.374	0.2	407	11	0	31	11	5	3	0	1	0	stim006_stimuli_original_animals_fish_2.png	D	0	0	0	359.090135799954	359.290134299954
325.774	0.2	408	11	0	31	12	4	13	1	0	1	stim005_stimuli_original_animals_fish_1.png	U	0	0	0	359.490147699951	359.69014599995
326.174	0.2	409	11	0	31	13	3	8	0	0	0	stim004_stimuli_original_animals_birds_4.png	K	NaN	360.081976499991	1	359.890153699962	360.09015949996
326.574	0.2	410	11	0	31	14	12	14	0	0	0	stim013_stimuli_original_vehicles_planes_1.png	V	0	0	0	360.290166799969	360.490153599996
326.974	0.2	411	11	0	31	15	10	3	0	0	0	stim011_stimuli_original_vehicles_boats_3.png	D	0	0	0	360.690173999988	360.890171799983
327.374	0.2	412	11	0	31	16	11	1	0	0	0	stim012_stimuli_original_vehicles_boats_4.png	B	0	0	0	361.090189699957	361.290185199992
327.774	0.2	413	11	0	31	17	13	9	0	0	0	stim014_stimuli_original_vehicles_planes_2.png	L	0	0	0	361.490196499974	361.690195699979
328.174	0.2	414	11	0	31	18	9	13	0	0	0	stim010_stimuli_original_vehicles_boats_2.png	U	0	0	0	361.890209199977	362.090208399983
328.574	0.2	415	11	0	31	19	1	11	0	0	0	stim002_stimuli_original_animals_birds_2.png	R	0	0	0	362.290216599999	362.490214699996
328.974	0.2	416	11	0	31	20	3	10	0	0	0	stim004_stimuli_original_animals_birds_4.png	Q	0	0	0	362.690254999965	362.890227099997
329.374	0.2	417	11	0	31	21	14	12	0	0	0	stim015_stimuli_original_vehicles_planes_3.png	T	0	0	0	363.090242199949	363.290250299964
329.774	0.2	418	11	0	31	22	8	3	0	0	0	stim009_stimuli_original_vehicles_boats_1.png	D	0	0	0	363.490248399961	363.690246199956
330.174	0.2	419	11	0	31	23	13	4	0	1	0	stim014_stimuli_original_vehicles_planes_2.png	E	0	0	0	363.890260199958	364.0902566
330.574	0.2	420	11	0	31	24	3	5	1	0	0	stim004_stimuli_original_animals_birds_4.png	F	0	0	0	364.29027139995	364.49026739999
330.974	0.2	421	11	0	31	25	15	4	0	1	0	stim016_stimuli_original_vehicles_planes_4.png	E	0	0	0	364.690277199959	364.890277999977
331.374	0.2	422	11	0	31	26	3	0	1	0	1	stim004_stimuli_original_animals_birds_4.png	A	0	0	0	365.090289399959	365.290317099949
331.774	0.2	423	11	0	31	27	5	2	0	0	0	stim006_stimuli_original_animals_fish_2.png	C	NaN	365.682092399977	1	365.490299700003	365.690298600006
332.174	0.2	424	11	0	31	28	12	15	0	0	0	stim013_stimuli_original_vehicles_planes_1.png	Y	0	0	0	365.890301499981	366.090296899958
332.574	0.2	425	11	0	31	29	11	4	0	0	0	stim012_stimuli_original_vehicles_boats_4.png	E	0	0	0	366.290310099954	366.490309799963
332.974	0.2	426	11	0	31	30	10	14	0	0	0	stim011_stimuli_original_vehicles_boats_3.png	V	0	0	0	366.690332399972	366.890317099984
333.374	0.2	427	11	0	31	31	6	9	0	0	0	stim007_stimuli_original_animals_fish_3.png	L	0	0	0	367.09033169999	367.290340599953
333.774	0.2	428	11	0	31	32	2	8	0	0	0	stim003_stimuli_original_animals_birds_3.png	K	0	0	0	367.490351899993	367.690354399965
334.174	0.2	429	11	0	31	33	0	6	0	0	0	stim001_stimuli_original_animals_birds_1.png	G	0	0	0	367.890385799983	368.090361199982
334.574	0.2	430	11	0	31	34	4	7	0	0	0	stim005_stimuli_original_animals_fish_1.png	J	0	0	0	368.290376399993	368.490386699967
334.974	0.2	431	11	0	31	35	7	1	0	0	0	stim008_stimuli_original_animals_fish_4.png	B	0	0	0	368.69038299995	368.890382899961
337.541	0.2	432	12	1	9	0	1	0	0	0	0	stim002_stimuli_original_animals_birds_2.png	A	0	0	0	371.25711929996	371.457114099991
337.941	0.2	433	12	1	9	1	5	10	0	0	0	stim006_stimuli_original_animals_fish_2.png	Q	0	0	0	371.657111899985	371.857114199956
338.341	0.2	434	12	1	9	2	3	13	0	0	0	stim004_stimuli_original_animals_birds_4.png	U	0	0	0	372.057124799991	372.257123599993
338.741	0.2	435	12	1	9	3	6	9	0	0	0	stim007_stimuli_original_animals_fish_3.png	L	0	0	0	372.457134199969	372.657135999994
339.141	0.2	436	12	1	9	4	7	8	0	0	0	stim008_stimuli_original_animals_fish_4.png	K	0	0	0	372.857145899965	373.057155099988
339.541	0.2	437	12	1	9	5	15	2	0	1	0	stim016_stimuli_original_vehicles_planes_4.png	C	0	0	0	373.257155900006	373.45716749999
339.941	0.2	438	12	1	9	6	4	5	0	0	0	stim005_stimuli_original_animals_fish_1.png	F	0	0	0	373.657180999988	373.857163499983
340.341	0.2	439	12	1	9	7	3	2	1	1	1	stim004_stimuli_original_animals_birds_4.png	C	0	0	0	374.057176299975	374.257175799983
340.741	0.2	440	12	1	9	8	13	12	0	0	0	stim014_stimuli_original_vehicles_planes_2.png	T	NaN	374.657405199949	1	374.457186399959	374.657196499989
341.141	0.2	441	12	1	9	9	3	11	1	0	0	stim004_stimuli_original_animals_birds_4.png	R	0	0	0	374.857196700003	375.057198299968
341.541	0.2	442	12	1	9	10	14	2	0	0	0	stim015_stimuli_original_vehicles_planes_3.png	C	0	0	0	375.257206799986	375.457217799965
341.941	0.2	443	12	1	9	11	10	15	0	0	0	stim011_stimuli_original_vehicles_boats_3.png	Y	0	0	0	375.657216499967	375.857217299985
342.341	0.2	444	12	1	9	12	11	1	0	0	0	stim012_stimuli_original_vehicles_boats_4.png	B	0	0	0	376.057228199963	376.257238399994
342.741	0.2	445	12	1	9	13	12	14	0	0	0	stim013_stimuli_original_vehicles_planes_1.png	V	0	0	0	376.457252599997	376.657237799955
343.141	0.2	446	12	1	9	14	9	6	0	0	0	stim010_stimuli_original_vehicles_boats_2.png	G	0	0	0	376.857247899985	377.05724699999
343.541	0.2	447	12	1	9	15	2	4	0	0	0	stim003_stimuli_original_animals_birds_3.png	E	0	0	0	377.257288899971	377.457268500002
343.941	0.2	448	12	1	9	16	8	7	0	0	0	stim009_stimuli_original_vehicles_boats_1.png	J	0	0	0	377.657268999959	377.857269199973
344.341	0.2	449	12	1	9	17	0	3	0	0	0	stim001_stimuli_original_animals_birds_1.png	D	0	0	0	378.057278499997	378.257279599959
344.741	0.2	450	12	1	9	18	3	0	0	0	0	stim004_stimuli_original_animals_birds_4.png	A	0	0	0	378.457290599996	378.657287599985
345.141	0.2	451	12	1	9	19	7	8	0	0	0	stim008_stimuli_original_animals_fish_4.png	K	0	0	0	378.857299899973	379.057299599983
345.541	0.2	452	12	1	9	20	4	2	0	0	0	stim005_stimuli_original_animals_fish_1.png	C	NaN	379.4491117	0	379.257309799956	379.45732279995
345.941	0.2	453	12	1	9	21	6	9	0	0	0	stim007_stimuli_original_animals_fish_3.png	L	0	0	0	379.657335600001	379.857333399996
346.341	0.2	454	12	1	9	22	14	12	0	0	0	stim015_stimuli_original_vehicles_planes_3.png	T	0	0	0	380.057344399975	380.257358399977
346.741	0.2	455	12	1	9	23	1	11	0	0	0	stim002_stimuli_original_animals_birds_2.png	R	0	0	0	380.457353199949	380.657352799957
347.141	0.2	456	12	1	9	24	15	10	0	0	0	stim016_stimuli_original_vehicles_planes_4.png	Q	0	0	0	380.857362999988	381.057361099985
347.541	0.2	457	12	1	9	25	2	14	0	0	0	stim003_stimuli_original_animals_birds_3.png	V	0	0	0	381.257375699992	381.457373599987
347.941	0.2	458	12	1	9	26	11	3	0	1	0	stim012_stimuli_original_vehicles_boats_4.png	D	0	0	0	381.657384399965	381.857410199998
348.341	0.2	459	12	1	9	27	12	13	0	0	0	stim013_stimuli_original_vehicles_planes_1.png	U	0	0	0	382.057393499999	382.257394699962
348.741	0.2	460	12	1	9	28	2	3	1	1	1	stim003_stimuli_original_animals_birds_3.png	D	0	0	0	382.457406799949	382.657402899989
349.141	0.2	461	12	1	9	29	5	4	0	0	0	stim006_stimuli_original_animals_fish_2.png	E	0	0	0	382.857415299979	383.057416900003
349.541	0.2	462	12	1	9	30	2	15	1	0	0	stim003_stimuli_original_animals_birds_3.png	Y	NaN	383.25	1	383.257451199985	383.457419499988
349.941	0.2	463	12	1	9	31	8	7	0	0	0	stim009_stimuli_original_vehicles_boats_1.png	J	0	0	0	383.657436499954	383.857439299987
350.341	0.2	464	12	1	9	32	9	6	0	0	0	stim010_stimuli_original_vehicles_boats_2.png	G	0	0	0	384.057448799955	384.257445299998
350.741	0.2	465	12	1	9	33	13	3	0	0	0	stim014_stimuli_original_vehicles_planes_2.png	D	0	0	0	384.45745799999	384.657458500005
351.141	0.2	466	12	1	9	34	10	5	0	0	0	stim011_stimuli_original_vehicles_boats_3.png	F	0	0	0	384.857467399968	385.057466299972
351.541	0.2	467	12	1	9	35	0	1	0	0	0	stim001_stimuli_original_animals_birds_1.png	B	0	0	0	385.257477599953	385.457467800006
356.475	0.2	468	13	0	23	0	7	0	0	0	0	stim008_stimuli_original_animals_fish_4.png	A	0	0	0	390.190962699999	390.390956299962
356.875	0.2	469	13	0	23	1	15	9	0	0	0	stim016_stimuli_original_vehicles_planes_4.png	L	0	0	0	390.590968899953	390.790967399953
357.275	0.2	470	13	0	23	2	13	4	0	0	0	stim014_stimuli_original_vehicles_planes_2.png	E	0	0	0	390.990976799978	391.190963000001
357.675	0.2	471	13	0	23	3	9	12	0	0	0	stim010_stimuli_original_vehicles_boats_2.png	T	0	0	0	391.390987799969	391.590987299976
358.075	0.2	472	13	0	23	4	11	11	0	0	0	stim012_stimuli_original_vehicles_boats_4.png	R	0	0	0	391.790997499949	391.990999099973
358.475	0.2	473	13	0	23	5	12	10	0	0	0	stim013_stimuli_original_vehicles_planes_1.png	Q	0	0	0	392.191007599991	392.39100959996
358.875	0.2	474	13	0	23	6	14	8	0	0	0	stim015_stimuli_original_vehicles_planes_3.png	K	0	0	0	392.591022799956	392.791018599994
359.275	0.2	475	13	0	23	7	2	2	0	0	0	stim003_stimuli_original_animals_birds_3.png	C	0	0	0	392.991049100005	393.191030899994
359.675	0.2	476	13	0	23	8	1	6	0	0	0	stim002_stimuli_original_animals_birds_2.png	G	0	0	0	393.391038600006	393.591040499974
360.075	0.2	477	13	0	23	9	4	14	0	0	0	stim005_stimuli_original_animals_fish_1.png	V	0	0	0	393.791054599977	393.991079500003
360.475	0.2	478	13	0	23	10	7	3	1	1	0	stim008_stimuli_original_animals_fish_4.png	D	0	0	0	394.191065599967	394.391059499991
360.875	0.2	479	13	0	23	11	3	7	0	0	0	stim004_stimuli_original_animals_birds_4.png	J	0	0	0	394.591076099954	394.79109829996
361.275	0.2	480	13	0	23	12	7	3	1	1	1	stim008_stimuli_original_animals_fish_4.png	D	0	0	0	394.991080599953	395.191080699966
361.675	0.2	481	13	0	23	13	5	15	0	0	0	stim006_stimuli_original_animals_fish_2.png	Y	NaN	395.582893499988	1	395.391095399973	395.591090400005
362.075	0.2	482	13	0	23	14	10	5	0	0	0	stim011_stimuli_original_vehicles_boats_3.png	F	0	0	0	395.791108199977	395.991101599997
362.475	0.2	483	13	0	23	15	8	1	0	0	0	stim009_stimuli_original_vehicles_boats_1.png	B	0	0	0	396.19111309998	396.391114900005
362.875	0.2	484	13	0	23	16	6	3	0	0	0	stim007_stimuli_original_animals_fish_3.png	D	0	0	0	396.591125199979	396.79112379998
363.275	0.2	485	13	0	23	17	0	13	0	0	0	stim001_stimuli_original_animals_birds_1.png	U	0	0	0	396.991133200005	397.19113209995
363.675	0.2	486	13	0	23	18	13	0	0	0	0	stim014_stimuli_original_vehicles_planes_2.png	A	0	0	0	397.391143599991	397.591144100006
364.075	0.2	487	13	0	23	19	3	6	0	0	0	stim004_stimuli_original_animals_birds_4.png	G	0	0	0	397.791159099957	397.991154299991
364.475	0.2	488	13	0	23	20	1	8	0	0	0	stim002_stimuli_original_animals_birds_2.png	K	0	0	0	398.191165999975	398.391169099952
364.875	0.2	489	13	0	23	21	5	10	0	0	0	stim006_stimuli_original_animals_fish_2.png	Q	0	0	0	398.591175599955	398.791175499966
365.275	0.2	490	13	0	23	22	15	5	0	0	0	stim016_stimuli_original_vehicles_planes_4.png	F	0	0	0	398.991183699982	399.19118559995
365.675	0.2	491	13	0	23	23	3	7	1	1	0	stim004_stimuli_original_animals_birds_4.png	J	0	0	0	399.391200899961	399.591193499975
366.075	0.2	492	13	0	23	24	7	3	0	0	0	stim008_stimuli_original_animals_fish_4.png	D	0	0	0	399.791211699951	399.991209
366.475	0.2	493	13	0	23	25	3	7	1	1	1	stim004_stimuli_original_animals_birds_4.png	J	0	0	0	400.191218699969	400.391216599965
366.875	0.2	494	13	0	23	26	14	4	0	0	0	stim015_stimuli_original_vehicles_planes_3.png	E	NaN	400.783028799982	1	400.591230499966	400.791228499962
367.275	0.2	495	13	0	23	27	6	1	0	0	0	stim007_stimuli_original_animals_fish_3.png	B	0	0	0	400.991237299982	401.191235699982
367.675	0.2	496	13	0	23	28	2	2	0	0	0	stim003_stimuli_original_animals_birds_3.png	C	0	0	0	401.391249499982	401.591235300002
368.075	0.2	497	13	0	23	29	8	14	0	0	0	stim009_stimuli_original_vehicles_boats_1.png	V	0	0	0	401.79126009997	401.991257099959
368.475	0.2	498	13	0	23	30	10	12	0	0	0	stim011_stimuli_original_vehicles_boats_3.png	T	0	0	0	402.191270699957	402.391270399967
368.875	0.2	499	13	0	23	31	11	11	0	0	0	stim012_stimuli_original_vehicles_boats_4.png	R	0	0	0	402.591284399969	402.791276799981
369.275	0.2	500	13	0	23	32	12	9	0	0	0	stim013_stimuli_original_vehicles_planes_1.png	L	0	0	0	402.991289099969	403.191290099989
369.675	0.2	501	13	0	23	33	4	13	0	0	0	stim005_stimuli_original_animals_fish_1.png	U	0	0	0	403.39130009996	403.591301399982
370.075	0.2	502	13	0	23	34	9	15	0	0	0	stim010_stimuli_original_vehicles_boats_2.png	Y	0	0	0	403.791310899949	403.991310099955
370.475	0.2	503	13	0	23	35	0	7	0	0	0	stim001_stimuli_original_animals_birds_1.png	J	0	0	0	404.191319399979	404.391320800001
373.575	0.2	504	14	1	6	0	1	6	0	0	0	stim002_stimuli_original_animals_birds_2.png	G	0	0	0	407.291389399965	407.491385200003
373.975	0.2	505	14	1	6	1	7	2	0	0	0	stim008_stimuli_original_animals_fish_4.png	C	0	0	0	407.69139729999	407.89138549997
374.375	0.2	506	14	1	6	2	8	13	0	0	0	stim009_stimuli_original_vehicles_boats_1.png	U	0	0	0	408.091397099954	408.291420499969
374.775	0.2	507	14	1	6	3	4	8	0	0	0	stim005_stimuli_original_animals_fish_1.png	K	0	0	0	408.491409199953	408.691408299957
375.175	0.2	508	14	1	6	4	3	14	0	0	0	stim004_stimuli_original_animals_birds_4.png	V	0	0	0	408.891436899954	409.091416099982
375.575	0.2	509	14	1	6	5	13	11	0	0	0	stim014_stimuli_original_vehicles_planes_2.png	R	0	0	0	409.291428199969	409.491427699977
375.975	0.2	510	14	1	6	6	5	15	0	0	0	stim006_stimuli_original_animals_fish_2.png	Y	0	0	0	409.691437000001	409.891438699968
376.375	0.2	511	14	1	6	7	9	4	0	1	0	stim010_stimuli_original_vehicles_boats_2.png	E	0	0	0	410.091448299994	410.291462699999
376.775	0.2	512	14	1	6	8	6	3	0	0	0	stim007_stimuli_original_animals_fish_3.png	D	0	0	0	410.49147529999	410.691468999954
377.175	0.2	513	14	1	6	9	11	4	0	1	1	stim012_stimuli_original_vehicles_boats_4.png	E	0	0	0	410.891494399984	411.091478999995
377.575	0.2	514	14	1	6	10	9	5	1	0	0	stim010_stimuli_original_vehicles_boats_2.png	F	0	0	0	411.291490899981	411.491492300003
377.975	0.2	515	14	1	6	11	12	10	0	0	0	stim013_stimuli_original_vehicles_planes_1.png	Q	0	0	0	411.691488699988	411.891491299961
378.375	0.2	516	14	1	6	12	9	0	1	0	0	stim010_stimuli_original_vehicles_boats_2.png	A	0	0	0	412.09149999998	412.29149839998
378.775	0.2	517	14	1	6	13	0	9	0	0	0	stim001_stimuli_original_animals_birds_1.png	L	0	0	0	412.491509899963	412.691511099983
379.175	0.2	518	14	1	6	14	2	1	0	0	0	stim003_stimuli_original_animals_birds_3.png	B	0	0	0	412.891522399965	413.091558699962
379.575	0.2	519	14	1	6	15	15	12	0	0	0	stim016_stimuli_original_vehicles_planes_4.png	T	0	0	0	413.291545999993	413.491557499976
379.975	0.2	520	14	1	6	16	10	7	0	0	0	stim011_stimuli_original_vehicles_boats_3.png	J	0	0	0	413.691569999966	413.891552799963
380.375	0.2	521	14	1	6	17	14	4	0	0	0	stim015_stimuli_original_vehicles_planes_3.png	E	0	0	0	414.091567899974	414.291564499959
380.775	0.2	522	14	1	6	18	4	14	0	0	0	stim005_stimuli_original_animals_fish_1.png	V	0	0	0	414.49157469999	414.691573999997
381.175	0.2	523	14	1	6	19	7	10	0	0	0	stim008_stimuli_original_animals_fish_4.png	Q	0	0	0	414.89158429997	415.091582999972
381.575	0.2	524	14	1	6	20	12	15	0	0	0	stim013_stimuli_original_vehicles_planes_1.png	Y	0	0	0	415.291599599994	415.49159359996
381.975	0.2	525	14	1	6	21	1	2	0	0	0	stim002_stimuli_original_animals_birds_2.png	C	0	0	0	415.69163289998	415.891605299956
382.375	0.2	526	14	1	6	22	9	0	0	0	0	stim010_stimuli_original_vehicles_boats_2.png	A	0	0	0	416.091615199985	416.291643299977
382.775	0.2	527	14	1	6	23	0	9	0	1	0	stim001_stimuli_original_animals_birds_1.png	L	0	0	0	416.491625199968	416.691624699975
383.175	0.2	528	14	1	6	24	10	12	0	0	0	stim011_stimuli_original_vehicles_boats_3.png	T	0	0	0	416.891645099968	417.091634799959
383.575	0.2	529	14	1	6	25	5	9	0	1	1	stim006_stimuli_original_animals_fish_2.png	L	0	0	0	417.291652099986	417.491648999974
383.975	0.2	530	14	1	6	26	4	11	1	0	0	stim005_stimuli_original_animals_fish_1.png	R	NaN	417.883489399974	1	417.691661599965	417.891646499978
384.375	0.2	531	14	1	6	27	3	6	0	0	0	stim004_stimuli_original_animals_birds_4.png	G	0	0	0	418.091669699992	418.291706999997
384.775	0.2	532	14	1	6	28	4	9	1	0	0	stim005_stimuli_original_animals_fish_1.png	L	0	0	0	418.491685299959	418.691678299976
385.175	0.2	533	14	1	6	29	15	5	0	0	0	stim016_stimuli_original_vehicles_planes_4.png	F	0	0	0	418.891706299968	419.091687199951
385.575	0.2	534	14	1	6	30	11	13	0	0	0	stim012_stimuli_original_vehicles_boats_4.png	U	0	0	0	419.291702699964	419.491700899962
385.975	0.2	535	14	1	6	31	14	3	0	0	0	stim015_stimuli_original_vehicles_planes_3.png	D	0	0	0	419.691707299964	419.891709099989
386.375	0.2	536	14	1	6	32	8	4	0	0	0	stim009_stimuli_original_vehicles_boats_1.png	E	0	0	0	420.091720899974	420.291720299982
386.775	0.2	537	14	1	6	33	13	8	0	0	0	stim014_stimuli_original_vehicles_planes_2.png	K	0	0	0	420.49173249997	420.691730199964
387.175	0.2	538	14	1	6	34	2	7	0	0	0	stim003_stimuli_original_animals_birds_3.png	J	0	0	0	420.891752499971	421.091741499957
387.575	0.2	539	14	1	6	35	6	1	0	0	0	stim007_stimuli_original_animals_fish_3.png	B	0	0	0	421.291755199956	421.491754699964
391.159	0.2	540	15	0	10	0	15	14	0	0	0	stim016_stimuli_original_vehicles_planes_4.png	V	0	0	0	424.875186799967	425.075178699975
391.559	0.2	541	15	0	10	1	2	9	0	0	0	stim003_stimuli_original_animals_birds_3.png	L	0	0	0	425.275181399949	425.475175999978
391.959	0.2	542	15	0	10	2	3	1	0	0	0	stim004_stimuli_original_animals_birds_4.png	B	0	0	0	425.675190899987	425.875187799975
392.359	0.2	543	15	0	10	3	0	3	0	0	0	stim001_stimuli_original_animals_birds_1.png	D	0	0	0	426.075213999953	426.275198999967
392.759	0.2	544	15	0	10	4	4	6	0	0	0	stim005_stimuli_original_animals_fish_1.png	G	0	0	0	426.475210399949	426.675219799974
393.159	0.2	545	15	0	10	5	14	5	1	0	0	stim015_stimuli_original_vehicles_planes_3.png	F	0	0	0	426.875249199977	427.075217299978
393.559	0.2	546	15	0	10	6	6	10	0	1	0	stim007_stimuli_original_animals_fish_3.png	Q	0	0	0	427.275230299972	427.475243499968
393.959	0.2	547	15	0	10	7	14	4	1	0	1	stim015_stimuli_original_vehicles_planes_3.png	E	0	0	0	427.675240199955	427.87525339995
394.359	0.2	548	15	0	10	8	5	10	0	1	0	stim006_stimuli_original_animals_fish_2.png	Q	0	0	0	428.075251599948	428.275290499965
394.759	0.2	549	15	0	10	9	12	8	0	0	0	stim013_stimuli_original_vehicles_planes_1.png	K	0	0	0	428.475263200002	428.675261199998
395.159	0.2	550	15	0	10	10	1	11	0	0	0	stim002_stimuli_original_animals_birds_2.png	R	0	0	0	428.875272199977	429.075277099968
395.559	0.2	551	15	0	10	11	13	12	0	0	0	stim014_stimuli_original_vehicles_planes_2.png	T	0	0	0	429.275285699987	429.475302699953
395.959	0.2	552	15	0	10	12	14	10	0	0	0	stim015_stimuli_original_vehicles_planes_3.png	Q	0	0	0	429.675314299995	429.875305399997
396.359	0.2	553	15	0	10	13	9	7	0	0	0	stim010_stimuli_original_vehicles_boats_2.png	J	0	0	0	430.075333599991	430.275313399965
396.759	0.2	554	15	0	10	14	7	13	0	0	0	stim008_stimuli_original_animals_fish_4.png	U	0	0	0	430.475311299961	430.675311999978
397.159	0.2	555	15	0	10	15	11	15	0	0	0	stim012_stimuli_original_vehicles_boats_4.png	Y	0	0	0	430.875325299974	431.0753195
397.559	0.2	556	15	0	10	16	10	2	0	0	0	stim011_stimuli_original_vehicles_boats_3.png	C	0	0	0	431.275336399965	431.47533419996
397.959	0.2	557	15	0	10	17	8	0	0	0	0	stim009_stimuli_original_vehicles_boats_1.png	A	0	0	0	431.675345600001	431.875344600005
398.359	0.2	558	15	0	10	18	0	8	0	0	0	stim001_stimuli_original_animals_birds_1.png	K	0	0	0	432.075367299956	432.27536629996
398.759	0.2	559	15	0	10	19	2	10	0	0	0	stim003_stimuli_original_animals_birds_3.png	Q	0	0	0	432.475366999977	432.675379599968
399.159	0.2	560	15	0	10	20	15	11	0	0	0	stim016_stimuli_original_vehicles_planes_4.png	R	0	0	0	432.875376799959	433.075398199959
399.559	0.2	561	15	0	10	21	13	7	0	0	0	stim014_stimuli_original_vehicles_planes_2.png	J	0	0	0	433.275386299996	433.475398899987
399.959	0.2	562	15	0	10	22	7	9	0	0	0	stim008_stimuli_original_animals_fish_4.png	L	0	0	0	433.675398399995	433.875396899995
400.359	0.2	563	15	0	10	23	10	14	0	0	0	stim011_stimuli_original_vehicles_boats_3.png	V	0	0	0	434.07540869998	434.27544269996
400.759	0.2	564	15	0	10	24	12	13	0	0	0	stim013_stimuli_original_vehicles_planes_1.png	U	0	0	0	434.475414999994	434.675414900004
401.159	0.2	565	15	0	10	25	11	1	0	0	0	stim012_stimuli_original_vehicles_boats_4.png	B	0	0	0	434.875446299964	435.075425899995
401.559	0.2	566	15	0	10	26	8	12	0	0	0	stim009_stimuli_original_vehicles_boats_1.png	T	0	0	0	435.275440400001	435.475436799985
401.959	0.2	567	15	0	10	27	10	5	1	0	0	stim011_stimuli_original_vehicles_boats_3.png	F	0	0	0	435.675449099974	435.87545729999
402.359	0.2	568	15	0	10	28	4	14	0	1	0	stim005_stimuli_original_animals_fish_1.png	V	0	0	0	436.075461099972	436.275470699999
402.759	0.2	569	15	0	10	29	10	6	1	0	1	stim011_stimuli_original_vehicles_boats_3.png	G	0	0	0	436.475468699995	436.675467399997
403.159	0.2	570	15	0	10	30	5	14	0	1	0	stim006_stimuli_original_animals_fish_2.png	V	NaN	437.079954599962	1	436.875511299993	437.075489799958
403.559	0.2	571	15	0	10	31	6	4	0	0	0	stim007_stimuli_original_animals_fish_3.png	E	0	0	0	437.275492099987	437.475526999973
403.959	0.2	572	15	0	10	32	3	0	0	0	0	stim004_stimuli_original_animals_birds_4.png	A	0	0	0	437.675501199963	437.875511299993
404.359	0.2	573	15	0	10	33	1	3	0	0	0	stim002_stimuli_original_animals_birds_2.png	D	0	0	0	438.075520799961	438.275512099965
404.759	0.2	574	15	0	10	34	9	2	0	0	0	stim010_stimuli_original_vehicles_boats_2.png	C	0	0	0	438.475522799999	438.675519699987
405.159	0.2	575	15	0	10	35	14	15	0	0	0	stim015_stimuli_original_vehicles_planes_3.png	Y	0	0	0	438.875532999984	439.07553219999
408.476	0.2	576	16	1	45	0	4	2	0	0	0	stim005_stimuli_original_animals_fish_1.png	C	0	0	0	442.192321899987	442.392308499955
408.876	0.2	577	16	1	45	1	10	10	0	0	0	stim011_stimuli_original_vehicles_boats_3.png	Q	0	0	0	442.592315999966	442.792316999985
409.276	0.2	578	16	1	45	2	7	4	0	0	0	stim008_stimuli_original_animals_fish_4.png	E	0	0	0	442.992326699954	443.192327499972
409.676	0.2	579	16	1	45	3	14	5	0	0	0	stim015_stimuli_original_vehicles_planes_3.png	F	0	0	0	443.392340399965	443.592336600006
410.076	0.2	580	16	1	45	4	0	9	0	0	0	stim001_stimuli_original_animals_birds_1.png	L	0	0	0	443.792347699986	443.992350599961
410.476	0.2	581	16	1	45	5	3	15	0	0	0	stim004_stimuli_original_animals_birds_4.png	Y	0	0	0	444.192362999951	444.392362299957
410.876	0.2	582	16	1	45	6	13	3	1	0	0	stim014_stimuli_original_vehicles_planes_2.png	D	0	0	0	444.592368599959	444.79237749998
411.276	0.2	583	16	1	45	7	8	13	0	0	0	stim009_stimuli_original_vehicles_boats_1.png	U	0	0	0	444.992381999968	445.19237809995
411.676	0.2	584	16	1	45	8	13	11	1	0	0	stim014_stimuli_original_vehicles_planes_2.png	R	0	0	0	445.392390099994	445.592390000005
412.076	0.2	585	16	1	45	9	1	7	0	0	0	stim002_stimuli_original_animals_birds_2.png	J	0	0	0	445.792398099962	445.99239889998
412.476	0.2	586	16	1	45	10	11	12	0	0	0	stim012_stimuli_original_vehicles_boats_4.png	T	0	0	0	446.1924153	446.392408899963
412.876	0.2	587	16	1	45	11	9	15	0	1	0	stim010_stimuli_original_vehicles_boats_2.png	Y	0	0	0	446.592422699963	446.792405599961
413.276	0.2	588	16	1	45	12	13	6	0	0	0	stim014_stimuli_original_vehicles_planes_2.png	G	0	0	0	446.992430399987	447.192436499987
413.676	0.2	589	16	1	45	13	6	15	0	1	1	stim007_stimuli_original_animals_fish_3.png	Y	0	0	0	447.392449299979	447.592440399982
414.076	0.2	590	16	1	45	14	12	8	0	0	0	stim013_stimuli_original_vehicles_planes_1.png	K	0	0	0	447.792451799964	447.992453599989
414.476	0.2	591	16	1	45	15	2	14	0	0	0	stim003_stimuli_original_animals_birds_3.png	V	0	0	0	448.192464499967	448.392465399986
414.876	0.2	592	16	1	45	16	15	1	0	0	0	stim016_stimuli_original_vehicles_planes_4.png	B	0	0	0	448.592472499993	448.792463199992
415.276	0.2	593	16	1	45	17	5	0	0	0	0	stim006_stimuli_original_animals_fish_2.png	A	0	0	0	448.992470800004	449.192475899996
415.676	0.2	594	16	1	45	18	0	5	0	0	0	stim001_stimuli_original_animals_birds_1.png	F	0	0	0	449.392503699986	449.592470999982
416.076	0.2	595	16	1	45	19	1	15	0	0	0	stim002_stimuli_original_animals_birds_2.png	Y	0	0	0	449.792492299981	449.992489399971
416.476	0.2	596	16	1	45	20	14	2	0	0	0	stim015_stimuli_original_vehicles_planes_3.png	C	0	0	0	450.192501999962	450.392491999955
416.876	0.2	597	16	1	45	21	8	12	0	0	0	stim009_stimuli_original_vehicles_boats_1.png	T	0	0	0	450.592513799958	450.792514599976
417.276	0.2	598	16	1	45	22	15	6	1	0	0	stim016_stimuli_original_vehicles_planes_4.png	G	0	0	0	450.992526699963	451.192525399965
417.676	0.2	599	16	1	45	23	6	13	0	0	0	stim007_stimuli_original_animals_fish_3.png	U	0	0	0	451.392534099985	451.59252299997
418.076	0.2	600	16	1	45	24	15	9	1	0	0	stim016_stimuli_original_vehicles_planes_4.png	L	0	0	0	451.792544599972	451.992543299973
418.476	0.2	601	16	1	45	25	12	11	0	0	0	stim013_stimuli_original_vehicles_planes_1.png	R	0	0	0	452.192554299952	452.392547299969
418.876	0.2	602	16	1	45	26	7	1	0	0	0	stim008_stimuli_original_animals_fish_4.png	B	0	0	0	452.592556099989	452.792552799976
419.276	0.2	603	16	1	45	27	11	13	0	1	0	stim012_stimuli_original_vehicles_boats_4.png	U	0	0	0	452.992564199958	453.19256549998
419.676	0.2	604	16	1	45	28	13	8	0	0	0	stim014_stimuli_original_vehicles_planes_2.png	K	0	0	0	453.392574099998	453.592576399969
420.076	0.2	605	16	1	45	29	3	13	0	1	1	stim004_stimuli_original_animals_birds_4.png	U	0	0	0	453.792585599993	453.992584499996
420.476	0.2	606	16	1	45	30	15	3	0	0	0	stim016_stimuli_original_vehicles_planes_4.png	D	0	0	0	454.192595699977	454.392595299985
420.876	0.2	607	16	1	45	31	9	0	0	0	0	stim010_stimuli_original_vehicles_boats_2.png	A	NaN	454.784407300001	1	454.592609999992	454.792609800003
421.276	0.2	608	16	1	45	32	5	14	0	0	0	stim006_stimuli_original_animals_fish_2.png	V	0	0	0	454.992616799951	455.192619199981
421.676	0.2	609	16	1	45	33	4	7	0	0	0	stim005_stimuli_original_animals_fish_1.png	J	0	0	0	455.392628100002	455.592631899985
422.076	0.2	610	16	1	45	34	10	10	0	0	0	stim011_stimuli_original_vehicles_boats_3.png	Q	0	0	0	455.792637499981	455.992634499969
422.476	0.2	611	16	1	45	35	2	4	0	0	0	stim003_stimuli_original_animals_birds_3.png	E	0	0	0	456.192646899959	456.392649699992
425.043	0.2	612	17	0	20	0	9	1	0	0	0	stim010_stimuli_original_vehicles_boats_2.png	B	0	0	0	458.75941389997	458.959406699985
425.443	0.2	613	17	0	20	1	5	7	0	0	0	stim006_stimuli_original_animals_fish_2.png	J	0	0	0	459.15941719996	459.359415099956
425.843	0.2	614	17	0	20	2	1	0	0	0	0	stim002_stimuli_original_animals_birds_2.png	A	0	0	0	459.559428699955	459.759419899958
426.243	0.2	615	17	0	20	3	0	9	0	0	0	stim001_stimuli_original_animals_birds_1.png	L	0	0	0	459.959443799977	460.159445800004
426.643	0.2	616	17	0	20	4	2	2	0	0	0	stim003_stimuli_original_animals_birds_3.png	C	0	0	0	460.359452999954	460.559450899949
427.043	0.2	617	17	0	20	5	13	4	0	0	0	stim014_stimuli_original_vehicles_planes_2.png	E	0	0	0	460.759465399955	460.95946319995
427.443	0.2	618	17	0	20	6	6	6	0	0	0	stim007_stimuli_original_animals_fish_3.png	G	0	0	0	461.159474499989	461.359472799988
427.843	0.2	619	17	0	20	7	12	5	0	0	0	stim013_stimuli_original_vehicles_planes_1.png	F	0	0	0	461.559485099977	461.759484099981
428.243	0.2	620	17	0	20	8	15	13	0	1	0	stim016_stimuli_original_vehicles_planes_4.png	U	0	0	0	461.959494099952	462.159494299965
428.643	0.2	621	17	0	20	9	14	11	0	0	0	stim015_stimuli_original_vehicles_planes_3.png	R	0	0	0	462.359504199994	462.559505399957
429.043	0.2	622	17	0	20	10	12	13	1	1	0	stim013_stimuli_original_vehicles_planes_1.png	U	0	0	0	462.759524299996	462.959514799993
429.443	0.2	623	17	0	20	11	3	8	0	0	0	stim004_stimuli_original_animals_birds_4.png	K	0	0	0	463.159528199991	463.359515199962
429.843	0.2	624	17	0	20	12	12	15	1	0	1	stim013_stimuli_original_vehicles_planes_1.png	Y	0	0	0	463.559536999965	463.759524499997
430.243	0.2	625	17	0	20	13	10	14	0	0	0	stim011_stimuli_original_vehicles_boats_3.png	V	0	0	0	463.959547099948	464.159540099965
430.643	0.2	626	17	0	20	14	8	3	0	0	0	stim009_stimuli_original_vehicles_boats_1.png	D	NaN	464.352246099967	1	464.359550299996	464.559551999962
431.043	0.2	627	17	0	20	15	4	13	0	0	0	stim005_stimuli_original_animals_fish_1.png	U	0	0	0	464.75955909997	464.959559999988
431.443	0.2	628	17	0	20	16	7	10	0	0	0	stim008_stimuli_original_animals_fish_4.png	Q	0	0	0	465.159572799981	465.359581600002
431.843	0.2	629	17	0	20	17	11	12	0	0	0	stim012_stimuli_original_vehicles_boats_4.png	T	0	0	0	465.559582699963	465.759568799986
432.243	0.2	630	17	0	20	18	12	11	0	0	0	stim013_stimuli_original_vehicles_planes_1.png	R	0	0	0	465.959582799987	466.159576599952
432.643	0.2	631	17	0	20	19	10	7	0	0	0	stim011_stimuli_original_vehicles_boats_3.png	J	0	0	0	466.3595891	466.559585899988
433.043	0.2	632	17	0	20	20	13	4	0	0	0	stim014_stimuli_original_vehicles_planes_2.png	E	0	0	0	466.759600499994	466.959597399982
433.443	0.2	633	17	0	20	21	3	8	0	0	0	stim004_stimuli_original_animals_birds_4.png	K	0	0	0	467.159596299985	467.359595499991
433.843	0.2	634	17	0	20	22	14	10	0	0	0	stim015_stimuli_original_vehicles_planes_3.png	Q	0	0	0	467.559602199995	467.759605599975
434.243	0.2	635	17	0	20	23	15	12	0	1	0	stim016_stimuli_original_vehicles_planes_4.png	T	0	0	0	467.959642399976	468.159619099984
434.643	0.2	636	17	0	20	24	8	3	0	0	0	stim009_stimuli_original_vehicles_boats_1.png	D	0	0	0	468.359640399984	468.559652299969
435.043	0.2	637	17	0	20	25	13	12	1	1	0	stim014_stimuli_original_vehicles_planes_2.png	T	0	0	0	468.759649299958	468.959638400003
435.443	0.2	638	17	0	20	26	11	14	0	0	0	stim012_stimuli_original_vehicles_boats_4.png	V	0	0	0	469.159660100006	469.359662499977
435.843	0.2	639	17	0	20	27	13	15	1	0	1	stim014_stimuli_original_vehicles_planes_2.png	Y	0	0	0	469.559669999988	469.759671999956
436.243	0.2	640	17	0	20	28	5	12	0	0	0	stim006_stimuli_original_animals_fish_2.png	T	0	0	0	469.95968249999	470.15970759996
436.643	0.2	641	17	0	20	29	6	6	0	0	0	stim007_stimuli_original_animals_fish_3.png	G	NaN	470.35232039995	1	470.35969079996	470.559692999988
437.044	0.2	642	17	0	20	30	4	13	0	0	0	stim005_stimuli_original_animals_fish_1.png	U	0	0	0	470.759728399978	470.959694399964
437.443	0.2	643	17	0	20	31	2	2	0	0	0	stim003_stimuli_original_animals_birds_3.png	C	0	0	0	471.159712599998	471.359701599984
437.843	0.2	644	17	0	20	32	9	0	0	0	0	stim010_stimuli_original_vehicles_boats_2.png	A	0	0	0	471.559725700004	471.759710599959
438.244	0.2	645	17	0	20	33	0	1	0	0	0	stim001_stimuli_original_animals_birds_1.png	B	0	0	0	471.959734099975	472.159736100002
438.644	0.2	646	17	0	20	34	7	5	0	0	0	stim008_stimuli_original_animals_fish_4.png	F	0	0	0	472.359744499961	472.559739899996
439.044	0.2	647	17	0	20	35	1	9	0	0	0	stim002_stimuli_original_animals_birds_2.png	L	0	0	0	472.759775099985	472.959753499948
442.01	0.2	648	18	1	26	0	0	5	0	0	0	stim001_stimuli_original_animals_birds_1.png	F	0	0	0	475.72649109998	475.92651119997
442.41	0.2	649	18	1	26	1	9	0	0	0	0	stim010_stimuli_original_vehicles_boats_2.png	A	0	0	0	476.126525399974	476.326525899989
442.81	0.2	650	18	1	26	2	8	12	0	0	0	stim009_stimuli_original_vehicles_boats_1.png	T	0	0	0	476.52653579996	476.726531399996
443.21	0.2	651	18	1	26	3	4	10	0	0	0	stim005_stimuli_original_animals_fish_1.png	Q	0	0	0	476.92654179997	477.126541699981
443.61	0.2	652	18	1	26	4	2	6	0	0	0	stim003_stimuli_original_animals_birds_3.png	G	0	0	0	477.326560099958	477.526561499981
444.01	0.2	653	18	1	26	5	11	13	1	0	0	stim012_stimuli_original_vehicles_boats_4.png	U	0	0	0	477.726567799982	477.926564099966
444.41	0.2	654	18	1	26	6	13	7	0	1	0	stim014_stimuli_original_vehicles_planes_2.png	J	0	0	0	478.126575200004	478.326571999991
444.81	0.2	655	18	1	26	7	11	14	1	0	0	stim012_stimuli_original_vehicles_boats_4.png	V	0	0	0	478.52659069997	478.726584499993
445.21	0.2	656	18	1	26	8	1	7	0	1	1	stim002_stimuli_original_animals_birds_2.png	J	0	0	0	478.926597499987	479.126596799993
445.61	0.2	657	18	1	26	9	12	2	0	0	0	stim013_stimuli_original_vehicles_planes_1.png	C	NaN	479.518401399953	1	479.326608999982	479.526601299993
446.01	0.2	658	18	1	26	10	7	1	0	0	0	stim008_stimuli_original_animals_fish_4.png	B	0	0	0	479.726618099958	479.926617999969
446.41	0.2	659	18	1	26	11	6	7	0	0	0	stim007_stimuli_original_animals_fish_3.png	J	0	0	0	480.126628400001	480.326627599949
446.81	0.2	660	18	1	26	12	11	8	0	0	0	stim012_stimuli_original_vehicles_boats_4.png	K	0	0	0	480.526643499965	480.726635799976
447.21	0.2	661	18	1	26	13	3	15	0	0	0	stim004_stimuli_original_animals_birds_4.png	Y	0	0	0	480.926651199989	481.126648199977
447.61	0.2	662	18	1	26	14	10	3	0	0	0	stim011_stimuli_original_vehicles_boats_3.png	D	0	0	0	481.326657800004	481.526656500006
448.01	0.2	663	18	1	26	15	15	9	0	0	0	stim016_stimuli_original_vehicles_planes_4.png	L	0	0	0	481.726668799995	481.926670599962
448.41	0.2	664	18	1	26	16	14	4	0	0	0	stim015_stimuli_original_vehicles_planes_3.png	E	0	0	0	482.126682899951	482.326675299963
448.81	0.2	665	18	1	26	17	5	11	0	0	0	stim006_stimuli_original_animals_fish_2.png	R	0	0	0	482.52669009997	482.726687999966
449.211	0.2	666	18	1	26	18	11	5	0	0	0	stim012_stimuli_original_vehicles_boats_4.png	F	0	0	0	482.926700199954	483.12666519999
449.611	0.2	667	18	1	26	19	4	14	0	0	0	stim005_stimuli_original_animals_fish_1.png	V	0	0	0	483.326712099952	483.526707699988
450.011	0.2	668	18	1	26	20	9	15	0	0	0	stim010_stimuli_original_vehicles_boats_2.png	Y	0	0	0	483.726722199994	483.926719399984
450.411	0.2	669	18	1	26	21	3	10	0	0	0	stim004_stimuli_original_animals_birds_4.png	Q	0	0	0	484.126733199984	484.326727699954
450.811	0.2	670	18	1	26	22	15	3	0	0	0	stim016_stimuli_original_vehicles_planes_4.png	D	0	0	0	484.526742899965	484.726739100006
451.211	0.2	671	18	1	26	23	8	11	0	0	0	stim009_stimuli_original_vehicles_boats_1.png	R	0	0	0	484.926750199986	485.126748599985
451.611	0.2	672	18	1	26	24	7	6	0	0	0	stim008_stimuli_original_animals_fish_4.png	G	0	0	0	485.326765799953	485.526765299961
452.011	0.2	673	18	1	26	25	1	7	0	0	0	stim002_stimuli_original_animals_birds_2.png	J	0	0	0	485.726775799994	485.926770299964
452.411	0.2	674	18	1	26	26	2	12	0	0	0	stim003_stimuli_original_animals_birds_3.png	T	0	0	0	486.126784899971	486.326796499954
452.811	0.2	675	18	1	26	27	7	1	1	0	0	stim008_stimuli_original_animals_fish_4.png	B	0	0	0	486.526794999954	486.726792400004
453.211	0.2	676	18	1	26	28	14	11	0	1	0	stim015_stimuli_original_vehicles_planes_3.png	R	0	0	0	486.92680299998	487.126800899976
453.611	0.2	677	18	1	26	29	7	13	1	0	0	stim008_stimuli_original_animals_fish_4.png	U	0	0	0	487.326819099952	487.526811399963
454.011	0.2	678	18	1	26	30	13	11	0	1	1	stim014_stimuli_original_vehicles_planes_2.png	R	NaN	487.719437299995	1	487.726822500001	487.926812799997
454.411	0.2	679	18	1	26	31	6	2	0	0	0	stim007_stimuli_original_animals_fish_3.png	C	0	0	0	488.126836099953	488.326832099992
454.811	0.2	680	18	1	26	32	10	4	0	0	0	stim011_stimuli_original_vehicles_boats_3.png	E	0	0	0	488.526864999963	488.726842899981
455.211	0.2	681	18	1	26	33	12	8	0	0	0	stim013_stimuli_original_vehicles_planes_1.png	K	0	0	0	488.926859500003	489.12685499998
455.611	0.2	682	18	1	26	34	0	9	0	0	0	stim001_stimuli_original_animals_birds_1.png	L	0	0	0	489.326865099953	489.526867699984
456.011	0.2	683	18	1	26	35	5	0	0	0	0	stim006_stimuli_original_animals_fish_2.png	A	0	0	0	489.726876000001	489.926874600002
458.844	0.2	684	19	0	13	0	11	1	0	0	0	stim012_stimuli_original_vehicles_boats_4.png	B	0	0	0	492.56027149997	492.760270299972
459.244	0.2	685	19	0	13	1	0	10	0	0	0	stim001_stimuli_original_animals_birds_1.png	Q	0	0	0	492.960292399977	493.16029749997
459.644	0.2	686	19	0	13	2	4	15	0	0	0	stim005_stimuli_original_animals_fish_1.png	Y	0	0	0	493.360295399965	493.560289799992
460.044	0.2	687	19	0	13	3	5	2	0	0	0	stim006_stimuli_original_animals_fish_2.png	C	0	0	0	493.760318099987	493.960298899969
460.444	0.2	688	19	0	13	4	8	6	0	0	0	stim009_stimuli_original_vehicles_boats_1.png	G	0	0	0	494.160310499952	494.360313599987
460.844	0.2	689	19	0	13	5	12	0	0	0	0	stim013_stimuli_original_vehicles_planes_1.png	A	0	0	0	494.5603214	494.760319299996
461.244	0.2	690	19	0	13	6	6	7	0	0	0	stim007_stimuli_original_animals_fish_3.png	J	0	0	0	494.960339799989	495.160332500003
461.644	0.2	691	19	0	13	7	7	3	0	0	0	stim008_stimuli_original_animals_fish_4.png	D	0	0	0	495.360348999966	495.560343399993
462.044	0.2	692	19	0	13	8	10	11	0	0	0	stim011_stimuli_original_vehicles_boats_3.png	R	0	0	0	495.760369099968	495.960353199975
462.444	0.2	693	19	0	13	9	15	12	0	0	0	stim016_stimuli_original_vehicles_planes_4.png	T	0	0	0	496.160363400006	496.360374999989
462.844	0.2	694	19	0	13	10	11	7	1	1	0	stim012_stimuli_original_vehicles_boats_4.png	J	0	0	0	496.560372399981	496.760371799988
463.244	0.2	695	19	0	13	11	9	13	0	0	0	stim010_stimuli_original_vehicles_boats_2.png	U	0	0	0	496.960382799967	497.160384799994
463.644	0.2	696	19	0	13	12	11	7	1	1	1	stim012_stimuli_original_vehicles_boats_4.png	J	0	0	0	497.360396499978	497.560391999956
464.044	0.2	697	19	0	13	13	14	14	0	0	0	stim015_stimuli_original_vehicles_planes_3.png	V	0	0	0	497.760405799956	497.960397999967
464.444	0.2	698	19	0	13	14	3	5	0	0	0	stim004_stimuli_original_animals_birds_4.png	F	0	0	0	498.160414099984	498.360393099952
464.844	0.2	699	19	0	13	15	13	8	0	0	0	stim014_stimuli_original_vehicles_planes_2.png	K	0	0	0	498.560426299984	498.760423699976
465.244	0.2	700	19	0	13	16	1	9	0	0	0	stim002_stimuli_original_animals_birds_2.png	L	0	0	0	498.960435299959	499.160436699982
465.644	0.2	701	19	0	13	17	2	4	0	0	0	stim003_stimuli_original_animals_birds_3.png	E	0	0	0	499.360447899962	499.560444999952
466.044	0.2	702	19	0	13	18	4	2	0	0	0	stim005_stimuli_original_animals_fish_1.png	C	0	0	0	499.760460099962	499.960456400004
466.444	0.2	703	19	0	13	19	9	1	0	0	0	stim010_stimuli_original_vehicles_boats_2.png	B	0	0	0	500.160458199971	500.360455599963
466.844	0.2	704	19	0	13	20	8	13	0	0	0	stim009_stimuli_original_vehicles_boats_1.png	U	0	0	0	500.560495699989	500.760465400002
467.244	0.2	705	19	0	13	21	5	3	0	0	0	stim006_stimuli_original_animals_fish_2.png	D	0	0	0	500.960478499997	501.160503699968
467.644	0.2	706	19	0	13	22	14	14	0	0	0	stim015_stimuli_original_vehicles_planes_3.png	V	0	0	0	501.360485099955	501.560487399984
468.044	0.2	707	19	0	13	23	7	11	1	1	0	stim008_stimuli_original_animals_fish_4.png	R	0	0	0	501.760498199961	501.960494800005
468.444	0.2	708	19	0	13	24	13	9	0	0	0	stim014_stimuli_original_vehicles_planes_2.png	L	0	0	0	502.160507199995	502.360505899996
468.844	0.2	709	19	0	13	25	7	11	1	1	1	stim008_stimuli_original_animals_fish_4.png	R	0	0	0	502.560519099992	502.760519000003
469.244	0.2	710	19	0	13	26	12	15	0	0	0	stim013_stimuli_original_vehicles_planes_1.png	Y	NaN	503.152322999958	1	502.960528099968	503.160547899955
469.644	0.2	711	19	0	13	27	11	10	0	0	0	stim012_stimuli_original_vehicles_boats_4.png	Q	0	0	0	503.360539399961	503.560535199998
470.044	0.2	712	19	0	13	28	3	7	0	0	0	stim004_stimuli_original_animals_birds_4.png	J	0	0	0	503.760571799998	503.960547800001
470.444	0.2	713	19	0	13	29	7	6	0	0	0	stim008_stimuli_original_animals_fish_4.png	G	0	0	0	504.160584199999	504.360562899965
470.844	0.2	714	19	0	13	30	0	12	0	0	0	stim001_stimuli_original_animals_birds_1.png	T	0	0	0	504.560570299975	504.76056809997
471.244	0.2	715	19	0	13	31	6	8	0	0	0	stim007_stimuli_original_animals_fish_3.png	K	0	0	0	504.960579699953	505.160578999959
471.644	0.2	716	19	0	13	32	2	5	0	0	0	stim003_stimuli_original_animals_birds_3.png	F	0	0	0	505.360591799952	505.560589200002
472.044	0.2	717	19	0	13	33	15	4	0	0	0	stim016_stimuli_original_vehicles_planes_4.png	E	0	0	0	505.760613499966	505.960601500003
472.444	0.2	718	19	0	13	34	10	0	0	0	0	stim011_stimuli_original_vehicles_boats_3.png	A	0	0	0	506.160612099979	506.360622999957
472.844	0.2	719	19	0	13	35	1	11	0	0	0	stim002_stimuli_original_animals_birds_2.png	R	0	0	0	506.560622299963	506.760622099973
477.311	0.2	720	20	1	40	0	11	2	0	0	0	stim012_stimuli_original_vehicles_boats_4.png	C	0	0	0	511.027439499972	511.227438899979
477.711	0.2	721	20	1	40	1	1	3	0	0	0	stim002_stimuli_original_animals_birds_2.png	D	0	0	0	511.427450299961	511.627474299981
478.111	0.2	722	20	1	40	2	5	11	0	0	0	stim006_stimuli_original_animals_fish_2.png	R	0	0	0	511.827463199967	512.027458099998
478.511	0.2	723	20	1	40	3	10	0	0	0	0	stim011_stimuli_original_vehicles_boats_3.png	A	0	0	0	512.227483399969	512.427468099981
478.911	0.2	724	20	1	40	4	15	14	0	0	0	stim016_stimuli_original_vehicles_planes_4.png	V	0	0	0	512.62748049997	512.82747759996
479.311	0.2	725	20	1	40	5	8	1	0	0	0	stim009_stimuli_original_vehicles_boats_1.png	B	0	0	0	513.02749009995	513.227492399979
479.711	0.2	726	20	1	40	6	4	6	0	1	0	stim005_stimuli_original_animals_fish_1.png	G	0	0	0	513.427503399958	513.627498999995
480.111	0.2	727	20	1	40	7	13	13	1	0	0	stim014_stimuli_original_vehicles_planes_2.png	U	0	0	0	513.827517499973	514.027508899977
480.511	0.2	728	20	1	40	8	3	6	0	1	1	stim004_stimuli_original_animals_birds_4.png	G	0	0	0	514.227535599959	514.427512499969
480.911	0.2	729	20	1	40	9	13	5	1	0	0	stim014_stimuli_original_vehicles_planes_2.png	F	0	0	0	514.627530400001	514.827516099962
481.311	0.2	730	20	1	40	10	12	4	0	0	0	stim013_stimuli_original_vehicles_planes_1.png	E	0	0	0	515.027540499985	515.22754209995
481.711	0.2	731	20	1	40	11	14	15	0	0	0	stim015_stimuli_original_vehicles_planes_3.png	Y	0	0	0	515.427552999987	515.627549999976
482.111	0.2	732	20	1	40	12	7	6	0	0	0	stim008_stimuli_original_animals_fish_4.png	G	0	0	0	515.82756439998	516.027564499993
482.511	0.2	733	20	1	40	13	9	8	0	0	0	stim010_stimuli_original_vehicles_boats_2.png	K	0	0	0	516.227577499987	516.427567999985
482.911	0.2	734	20	1	40	14	13	7	0	0	0	stim014_stimuli_original_vehicles_planes_2.png	J	NaN	516.620190299989	0	516.627578299958	516.827594099974
483.311	0.2	735	20	1	40	15	6	10	0	0	0	stim007_stimuli_original_animals_fish_3.png	Q	0	0	0	517.0276036	517.227582999971
483.711	0.2	736	20	1	40	16	2	9	0	0	0	stim003_stimuli_original_animals_birds_3.png	L	0	0	0	517.427604399971	517.627594999969
484.111	0.2	737	20	1	40	17	0	12	0	0	0	stim001_stimuli_original_animals_birds_1.png	T	0	0	0	517.827610499982	518.027611700003
484.511	0.2	738	20	1	40	18	12	0	0	0	0	stim013_stimuli_original_vehicles_planes_1.png	A	0	0	0	518.227619199955	518.427627699974
484.911	0.2	739	20	1	40	19	9	2	0	0	0	stim010_stimuli_original_vehicles_boats_2.png	C	0	0	0	518.627636399993	518.827635299996
485.311	0.2	740	20	1	40	20	10	6	0	0	0	stim011_stimuli_original_vehicles_boats_3.png	G	0	0	0	519.027647699986	519.227647199994
485.711	0.2	741	20	1	40	21	7	13	0	0	0	stim008_stimuli_original_animals_fish_4.png	U	0	0	0	519.427660099987	519.627650699986
486.112	0.2	742	20	1	40	22	8	9	0	0	0	stim009_stimuli_original_vehicles_boats_1.png	L	0	0	0	519.827668099955	520.027665500005
486.512	0.2	743	20	1	40	23	6	7	0	0	0	stim007_stimuli_original_animals_fish_3.png	J	0	0	0	520.227676999988	520.427679699962
486.912	0.2	744	20	1	40	24	15	14	0	0	0	stim016_stimuli_original_vehicles_planes_4.png	V	0	0	0	520.627686199965	520.827689099999
487.312	0.2	745	20	1	40	25	4	12	0	0	0	stim005_stimuli_original_animals_fish_1.png	T	0	0	0	521.027697599959	521.227687099949
487.712	0.2	746	20	1	40	26	5	13	0	1	0	stim006_stimuli_original_animals_fish_2.png	U	0	0	0	521.427707399998	521.627725999977
488.112	0.2	747	20	1	40	27	6	3	1	0	0	stim007_stimuli_original_animals_fish_3.png	D	0	0	0	521.82772089995	522.027719899954
488.512	0.2	748	20	1	40	28	13	13	0	1	1	stim014_stimuli_original_vehicles_planes_2.png	U	0	0	0	522.227736999979	522.427729899995
488.912	0.2	749	20	1	40	29	6	4	1	0	0	stim007_stimuli_original_animals_fish_3.png	E	0	0	0	522.627739199961	522.827741299989
489.312	0.2	750	20	1	40	30	1	8	0	0	0	stim002_stimuli_original_animals_birds_2.png	K	NaN	523.020417099993	1	523.02775129996	523.22775239998
489.712	0.2	751	20	1	40	31	14	15	0	0	0	stim015_stimuli_original_vehicles_planes_3.png	Y	0	0	0	523.427766399982	523.627769299957
490.112	0.2	752	20	1	40	32	0	10	0	0	0	stim001_stimuli_original_animals_birds_1.png	Q	0	0	0	523.827770999982	524.027769699984
490.512	0.2	753	20	1	40	33	11	5	0	0	0	stim012_stimuli_original_vehicles_boats_4.png	F	0	0	0	524.227767999982	524.427779299964
490.912	0.2	754	20	1	40	34	3	1	0	0	0	stim004_stimuli_original_animals_birds_4.png	B	0	0	0	524.627778999973	524.827775599959
491.312	0.2	755	20	1	40	35	2	11	0	0	0	stim003_stimuli_original_animals_birds_3.png	R	0	0	0	525.027792399982	525.227800699999
494.645	0.2	756	21	0	7	0	9	0	0	0	0	stim010_stimuli_original_vehicles_boats_2.png	A	0	0	0	528.361226099951	528.561222799995
495.045	0.2	757	21	0	7	1	0	15	0	0	0	stim001_stimuli_original_animals_birds_1.png	Y	0	0	0	528.761253000004	528.961230799963
495.445	0.2	758	21	0	7	2	7	14	0	0	0	stim008_stimuli_original_animals_fish_4.png	V	0	0	0	529.1612417	529.361228399968
495.845	0.2	759	21	0	7	3	13	11	0	0	0	stim014_stimuli_original_vehicles_planes_2.png	R	0	0	0	529.561258099973	529.761256399972
496.245	0.2	760	21	0	7	4	11	3	0	0	0	stim012_stimuli_original_vehicles_boats_4.png	D	0	0	0	529.961264099984	530.16126199998
496.645	0.2	761	21	0	7	5	4	7	1	0	0	stim005_stimuli_original_animals_fish_1.png	J	0	0	0	530.361272599956	530.561274399981
497.045	0.2	762	21	0	7	6	6	4	0	0	0	stim007_stimuli_original_animals_fish_3.png	E	0	0	0	530.761287499976	530.961261599965
497.445	0.2	763	21	0	7	7	4	2	1	1	1	stim005_stimuli_original_animals_fish_1.png	C	0	0	0	531.161295900005	531.361308599997
497.845	0.2	764	21	0	7	8	12	5	0	0	0	stim013_stimuli_original_vehicles_planes_1.png	F	0	0	0	531.561311899975	531.76130709995
498.245	0.2	765	21	0	7	9	2	2	0	1	0	stim003_stimuli_original_animals_birds_3.png	C	0	0	0	531.961319900001	532.16131689999
498.645	0.2	766	21	0	7	10	15	10	0	0	0	stim016_stimuli_original_vehicles_planes_4.png	Q	0	0	0	532.361328599975	532.56132519996
499.045	0.2	767	21	0	7	11	14	12	0	0	0	stim015_stimuli_original_vehicles_planes_3.png	T	0	0	0	532.761335299991	532.961335400003
499.445	0.2	768	21	0	7	12	5	8	0	0	0	stim006_stimuli_original_animals_fish_2.png	K	0	0	0	533.161346499983	533.361334799964
499.845	0.2	769	21	0	7	13	8	1	0	0	0	stim009_stimuli_original_vehicles_boats_1.png	B	0	0	0	533.561328999989	533.761358799995
500.245	0.2	770	21	0	7	14	4	6	0	0	0	stim005_stimuli_original_animals_fish_1.png	G	0	0	0	533.961385699979	534.161351999966
500.645	0.2	771	21	0	7	15	1	13	0	0	0	stim002_stimuli_original_animals_birds_2.png	U	0	0	0	534.36138279998	534.561370899959
501.045	0.2	772	21	0	7	16	3	2	0	0	0	stim004_stimuli_original_animals_birds_4.png	C	0	0	0	534.761388499988	534.961386599985
501.445	0.2	773	21	0	7	17	10	9	0	0	0	stim011_stimuli_original_vehicles_boats_3.png	L	0	0	0	535.161398899974	535.361400399997
501.845	0.2	774	21	0	7	18	9	10	0	0	0	stim010_stimuli_original_vehicles_boats_2.png	Q	0	0	0	535.561412599985	535.761418199982
502.245	0.2	775	21	0	7	19	2	3	0	0	0	stim003_stimuli_original_animals_birds_3.png	D	0	0	0	535.961427000002	536.161419699958
502.645	0.2	776	21	0	7	20	13	1	0	0	0	stim014_stimuli_original_vehicles_planes_2.png	B	0	0	0	536.361436199979	536.561411499977
503.045	0.2	777	21	0	7	21	6	4	0	0	0	stim007_stimuli_original_animals_fish_3.png	E	0	0	0	536.761431599967	536.961440099985
503.445	0.2	778	21	0	7	22	1	8	0	0	0	stim002_stimuli_original_animals_birds_2.png	K	0	0	0	537.161449499952	537.361454900005
503.845	0.2	779	21	0	7	23	8	5	0	0	0	stim009_stimuli_original_vehicles_boats_1.png	F	0	0	0	537.561460900004	537.761460099951
504.245	0.2	780	21	0	7	24	12	14	0	0	0	stim013_stimuli_original_vehicles_planes_1.png	V	0	0	0	537.961461699975	538.161471700005
504.645	0.2	781	21	0	7	25	10	15	0	0	0	stim011_stimuli_original_vehicles_boats_3.png	Y	0	0	0	538.3614848	538.561483099998
505.045	0.2	782	21	0	7	26	2	2	1	0	0	stim003_stimuli_original_animals_birds_3.png	C	0	0	0	538.761530999967	538.961494299991
505.445	0.2	783	21	0	7	27	5	12	0	0	0	stim006_stimuli_original_animals_fish_2.png	T	0	0	0	539.161502799951	539.361501599953
505.845	0.2	784	21	0	7	28	2	4	1	1	1	stim003_stimuli_original_animals_birds_3.png	E	0	0	0	539.561513499997	539.7615124
506.245	0.2	785	21	0	7	29	4	6	0	0	0	stim005_stimuli_original_animals_fish_1.png	G	NaN	540.153312299983	1	539.961524599988	540.161526799959
506.645	0.2	786	21	0	7	30	7	4	0	1	0	stim008_stimuli_original_animals_fish_4.png	E	0	0	0	540.361538600002	540.561534399982
507.045	0.2	787	21	0	7	31	3	11	0	0	0	stim004_stimuli_original_animals_birds_4.png	R	0	0	0	540.761546499969	540.961531699984
507.445	0.2	788	21	0	7	32	11	13	0	0	0	stim012_stimuli_original_vehicles_boats_4.png	U	0	0	0	541.161554799997	541.361560599995
507.845	0.2	789	21	0	7	33	14	7	0	0	0	stim015_stimuli_original_vehicles_planes_3.png	J	0	0	0	541.561565299984	541.761569199967
508.245	0.2	790	21	0	7	34	15	0	0	0	0	stim016_stimuli_original_vehicles_planes_4.png	A	0	0	0	541.961575799971	542.161575299979
508.645	0.2	791	21	0	7	35	0	9	0	0	0	stim001_stimuli_original_animals_birds_1.png	L	0	0	0	542.361590799992	542.561584499956
512.846	0.2	792	22	1	8	0	10	11	0	0	0	stim011_stimuli_original_vehicles_boats_3.png	R	0	0	0	546.561674600001	546.761675599962
513.246	0.2	793	22	1	8	1	5	2	0	0	0	stim006_stimuli_original_animals_fish_2.png	C	0	0	0	546.961684099981	547.16168249998
513.646	0.2	794	22	1	8	2	0	5	0	0	0	stim001_stimuli_original_animals_birds_1.png	F	0	0	0	547.361693899962	547.56169469998
514.046	0.2	795	22	1	8	3	1	7	0	0	0	stim002_stimuli_original_animals_birds_2.png	J	0	0	0	547.761703199998	547.961703599954
514.446	0.2	796	22	1	8	4	3	8	0	0	0	stim004_stimuli_original_animals_birds_4.png	K	0	0	0	548.161715599999	548.361716299958
514.846	0.2	797	22	1	8	5	6	6	0	0	0	stim007_stimuli_original_animals_fish_3.png	G	0	0	0	548.561724799976	548.761725899996
515.246	0.2	798	22	1	8	6	12	10	0	0	0	stim013_stimuli_original_vehicles_planes_1.png	Q	0	0	0	548.96173889999	549.161734599969
515.646	0.2	799	22	1	8	7	14	15	0	1	0	stim015_stimuli_original_vehicles_planes_3.png	Y	0	0	0	549.361746999959	549.561748599983
