onset	duration	eventnumber	sequencenumber	condition	streamnumber	stimnumber	objectstimnumber	letterstimnumber	objecttarget	lettertarget	is2back	objectstim	letterstim	response	rt	correct	time_stimon	time_stimoff
14266.25	100	0	0	0	33	0	11	2	0	0	0	stim012_stimuli_original_vehicles_boats_4.png	C	0	0	0	73.2718648000155	73.4722032999853
14366.25	100	1	0	0	33	1	2	8	0	0	0	stim003_stimuli_original_animals_birds_3.png	K	0	0	0	73.6718722000951	73.8718727000523
14466.25	100	2	0	0	33	2	8	3	0	0	0	stim009_stimuli_original_vehicles_boats_1.png	D	0	0	0	74.0718854999868	74.2718829000369
14566.25	100	3	0	0	33	3	7	5	0	0	0	stim008_stimuli_original_animals_fish_4.png	F	0	0	0	74.4718928000657	74.6718965000473
14666.25	100	4	0	0	33	4	6	13	0	0	0	stim007_stimuli_original_animals_fish_3.png	U	0	0	0	74.8719043000601	75.0719047000166
14766.25	100	5	0	0	33	5	15	4	0	0	0	stim016_stimuli_original_vehicles_planes_4.png	E	0	0	0	75.2719138000393	75.4719153000042
14866.25	100	6	0	0	33	6	10	10	0	0	0	stim011_stimuli_original_vehicles_boats_3.png	Q	0	0	0	75.671948900097	75.87192830001
14966.25	100	7	0	0	33	7	1	14	0	0	0	stim002_stimuli_original_animals_birds_2.png	V	0	0	0	76.0719407000579	76.2719438000349
15066.25	100	8	0	0	33	8	9	9	0	0	0	stim010_stimuli_original_vehicles_boats_2.png	L	0	0	0	76.471951500047	76.6719543000218
15166.25	100	9	0	0	33	9	0	6	0	0	0	stim001_stimuli_original_animals_birds_1.png	G	0	0	0	76.8719600000186	77.0719629999949
15266.25	100	10	0	0	33	10	1	12	1	0	0	stim002_stimuli_original_animals_birds_2.png	T	0	0	0	77.2719696999993	77.4719716000836
15366.25	100	11	0	0	33	11	13	11	0	0	0	stim014_stimuli_original_vehicles_planes_2.png	R	0	0	0	77.6719813999953	77.8719821000705
15466.25	100	12	0	0	33	12	1	10	1	1	1	stim002_stimuli_original_animals_birds_2.png	Q	0	0	0	78.0719996000407	78.2719959000824
15566.25	100	13	0	0	33	13	12	1	0	0	0	stim013_stimuli_original_vehicles_planes_1.png	B	f	78.4646809000988	1	78.4720041000983	78.671992000076
15666.5	100	14	0	0	33	14	3	10	0	1	0	stim004_stimuli_original_animals_birds_4.png	Q	0	0	0	78.8721656000707	79.0719951000065
15766.25	100	15	0	0	33	15	4	15	0	0	0	stim005_stimuli_original_animals_fish_1.png	Y	0	0	0	79.2720017000102	79.4720029000891
15866.25	100	16	0	0	33	16	5	7	0	0	0	stim006_stimuli_original_animals_fish_2.png	J	0	0	0	79.6720390000846	79.872011700063
15966.25	100	17	0	0	33	17	14	0	0	0	0	stim015_stimuli_original_vehicles_planes_3.png	A	0	0	0	80.0720296000363	80.2720531000523
16066.25	100	18	0	0	33	18	0	14	0	0	0	stim001_stimuli_original_animals_birds_1.png	V	0	0	0	80.4720351999858	80.6720343000488
16166.25	100	19	0	0	33	19	7	5	0	0	0	stim008_stimuli_original_animals_fish_4.png	F	0	0	0	80.8720446000807	81.0720445000334
16266.25	100	20	0	0	33	20	15	4	0	0	0	stim016_stimuli_original_vehicles_planes_4.png	E	0	0	0	81.2720558000728	81.4720567000331
16366.5	100	21	0	0	33	21	10	3	1	0	0	stim011_stimuli_original_vehicles_boats_3.png	D	0	0	0	81.6720681000734	81.8720730000641
16466.5	100	22	0	0	33	22	1	12	0	0	0	stim002_stimuli_original_animals_birds_2.png	T	0	0	0	82.0720802000724	82.2720943000168
16566.5	100	23	0	0	33	23	10	1	1	1	1	stim011_stimuli_original_vehicles_boats_3.png	B	0	0	0	82.4720916000661	82.6720903000096
16666.5	100	24	0	0	33	24	11	13	0	0	0	stim012_stimuli_original_vehicles_boats_4.png	U	f	82.8646634999895	1	82.8721149000339	83.0721040000208
16766.5	100	25	0	0	33	25	12	1	0	1	0	stim013_stimuli_original_vehicles_planes_1.png	B	0	0	0	83.2721122000366	83.4721149000106
16866.5	100	26	0	0	33	26	6	0	0	0	0	stim007_stimuli_original_animals_fish_3.png	A	0	0	0	83.6721242000349	83.8721231000964
16966.5	100	27	0	0	33	27	9	9	0	0	0	stim010_stimuli_original_vehicles_boats_2.png	L	0	0	0	84.0721356000286	84.2721350000938
17066.5	100	28	0	0	33	28	14	1	0	0	0	stim015_stimuli_original_vehicles_planes_3.png	B	0	0	0	84.4721677000634	84.6721468000906
17166.5	100	29	0	0	33	29	10	10	0	0	0	stim011_stimuli_original_vehicles_boats_3.png	Q	0	0	0	84.8721652000677	85.0721570000751
17266.5	100	30	0	0	33	30	4	15	0	0	0	stim005_stimuli_original_animals_fish_1.png	Y	0	0	0	85.272168800002	85.4721726001007
17366.5	100	31	0	0	33	31	13	6	0	0	0	stim014_stimuli_original_vehicles_planes_2.png	G	0	0	0	85.6721787001006	85.8721803000662
17466.5	100	32	0	0	33	32	5	7	0	0	0	stim006_stimuli_original_animals_fish_2.png	J	0	0	0	86.0721910999855	86.2721905000508
17566.5	100	33	0	0	33	33	3	8	0	0	0	stim004_stimuli_original_animals_birds_4.png	K	0	0	0	86.4722017000895	86.6722031000536
17666.5	100	34	0	0	33	34	8	2	0	0	0	stim009_stimuli_original_vehicles_boats_1.png	C	0	0	0	86.87221400009	87.0722397000063
17766.5	100	35	0	0	33	35	2	11	0	0	0	stim003_stimuli_original_animals_birds_3.png	R	0	0	0	87.2722239000723	87.4722239000257
18479	100	36	1	1	13	0	5	10	0	0	0	stim006_stimuli_original_animals_fish_2.png	Q	0	0	0	90.1223293000367	90.3223298999947
18579	100	37	1	1	13	1	7	15	0	0	0	stim008_stimuli_original_animals_fish_4.png	Y	0	0	0	90.522337900009	90.7223430000013
18679	100	38	1	1	13	2	9	11	0	0	0	stim010_stimuli_original_vehicles_boats_2.png	R	0	0	0	90.9223697000416	91.1223565000109
18779	100	39	1	1	13	3	15	14	0	0	0	stim016_stimuli_original_vehicles_planes_4.png	V	0	0	0	91.3223686000565	91.5223616000731
18879	100	40	1	1	13	4	11	4	0	0	0	stim012_stimuli_original_vehicles_boats_4.png	E	0	0	0	91.7223753000144	91.9223730000667
18979	100	41	1	1	13	5	14	1	0	0	0	stim015_stimuli_original_vehicles_planes_3.png	B	0	0	0	92.1223847999936	92.3223845000612
19079	100	42	1	1	13	6	15	12	1	0	0	stim016_stimuli_original_vehicles_planes_4.png	T	0	0	0	92.5223972999956	92.722397100064
19179	100	43	1	1	13	7	12	0	0	0	0	stim013_stimuli_original_vehicles_planes_1.png	A	0	0	0	92.9224108000053	93.1224106000736
19279	100	44	1	1	13	8	15	8	1	0	0	stim016_stimuli_original_vehicles_planes_4.png	K	0	0	0	93.3224232000066	93.5224314000225
19379	100	45	1	1	13	9	13	3	0	0	0	stim014_stimuli_original_vehicles_planes_2.png	D	0	0	0	93.7224220000207	93.9224320000503
19479	100	46	1	1	13	10	2	2	0	0	0	stim003_stimuli_original_animals_birds_3.png	C	0	0	0	94.1224410000723	94.3224411000265
19579	100	47	1	1	13	11	4	12	0	1	0	stim005_stimuli_original_animals_fish_1.png	T	0	0	0	94.52245030005	94.7224540000316
19679	100	48	1	1	13	12	3	7	0	0	0	stim004_stimuli_original_animals_birds_4.png	J	0	0	0	94.9224677000893	95.1224635000108
19779	100	49	1	1	13	13	6	12	0	1	1	stim007_stimuli_original_animals_fish_3.png	T	0	0	0	95.3224761000602	95.5224489000393
19879	100	50	1	1	13	14	10	6	0	0	0	stim011_stimuli_original_vehicles_boats_3.png	G	0	0	0	95.7224584000651	95.9224585000193
19979	100	51	1	1	13	15	8	5	0	0	0	stim009_stimuli_original_vehicles_boats_1.png	F	0	0	0	96.1224703000626	96.3224696000107
20079	100	52	1	1	13	16	1	9	0	0	0	stim002_stimuli_original_animals_birds_2.png	L	0	0	0	96.522479700041	96.7224807000021
20179	100	53	1	1	13	17	0	13	0	0	0	stim001_stimuli_original_animals_birds_1.png	U	0	0	0	96.9224926000461	97.1224921999965
20279	100	54	1	1	13	18	13	0	0	0	0	stim014_stimuli_original_vehicles_planes_2.png	A	0	0	0	97.322501800023	97.5225018000929
20379	100	55	1	1	13	19	9	1	0	0	0	stim010_stimuli_original_vehicles_boats_2.png	B	0	0	0	97.722513500019	97.922513000085
20479	100	56	1	1	13	20	5	8	0	0	0	stim006_stimuli_original_animals_fish_2.png	K	0	0	0	98.1225259000203	98.3225290999981
20579	100	57	1	1	13	21	6	10	0	0	0	stim007_stimuli_original_animals_fish_3.png	Q	0	0	0	98.5225365000078	98.7225381000899
20679	100	58	1	1	13	22	12	6	1	0	0	stim013_stimuli_original_vehicles_planes_1.png	G	0	0	0	98.9225474999985	99.1225484000752
20779	100	59	1	1	13	23	7	3	0	0	0	stim008_stimuli_original_animals_fish_4.png	D	0	0	0	99.3225580999861	99.5225607000757
20879	100	60	1	1	13	24	12	4	1	0	0	stim013_stimuli_original_vehicles_planes_1.png	E	0	0	0	99.7225702999858	99.9225688000442
20979	100	61	1	1	13	25	2	2	0	0	0	stim003_stimuli_original_animals_birds_3.png	C	0	0	0	100.122581100091	100.322579700034
21079	100	62	1	1	13	26	3	13	0	0	0	stim004_stimuli_original_animals_birds_4.png	U	0	0	0	100.522592800087	100.722592100035
21179	100	63	1	1	13	27	8	15	0	1	0	stim009_stimuli_original_vehicles_boats_1.png	Y	0	0	0	100.922603300074	101.122603100026
21279	100	64	1	1	13	28	0	12	0	0	0	stim001_stimuli_original_animals_birds_1.png	T	0	0	0	101.322615900077	101.522614900023
21379	100	65	1	1	13	29	12	15	0	1	1	stim013_stimuli_original_vehicles_planes_1.png	Y	0	0	0	101.722626500065	101.922625700012
21479	100	66	1	1	13	30	1	14	0	0	0	stim002_stimuli_original_animals_birds_2.png	V	0	0	0	102.122637200053	102.322637300007
21579	100	67	1	1	13	31	4	11	0	0	0	stim005_stimuli_original_animals_fish_1.png	R	f	102.515169500024	1	102.522647200036	102.722649400006
21679	100	68	1	1	13	32	14	15	0	0	0	stim015_stimuli_original_vehicles_planes_3.png	Y	0	0	0	102.922659100033	103.122660499997
21779	100	69	1	1	13	33	11	9	0	0	0	stim012_stimuli_original_vehicles_boats_4.png	L	0	0	0	103.322671700036	103.522669500089
21879	100	70	1	1	13	34	15	7	0	0	0	stim016_stimuli_original_vehicles_planes_4.png	J	0	0	0	103.722683600034	103.922682900098
21979	100	71	1	1	13	35	10	5	0	0	0	stim011_stimuli_original_vehicles_boats_3.png	F	0	0	0	104.12269270001	104.322693200083
22708.25	100	72	2	0	1	0	5	10	0	0	0	stim006_stimuli_original_animals_fish_2.png	Q	0	0	0	107.039460400003	107.239446800086
22808.25	100	73	2	0	1	1	2	13	0	0	0	stim003_stimuli_original_animals_birds_3.png	U	0	0	0	107.439454000094	107.63945440005
22908.25	100	74	2	0	1	2	10	14	0	0	0	stim011_stimuli_original_vehicles_boats_3.png	V	0	0	0	107.839467699989	108.03948320006
23008.25	100	75	2	0	1	3	6	1	0	0	0	stim007_stimuli_original_animals_fish_3.png	B	0	0	0	108.23947800009	108.439477000036
23108.25	100	76	2	0	1	4	14	0	0	0	0	stim015_stimuli_original_vehicles_planes_3.png	A	0	0	0	108.639488200075	108.839487900026
23208.25	100	77	2	0	1	5	8	11	0	0	0	stim009_stimuli_original_vehicles_boats_1.png	R	0	0	0	109.039501200081	109.23949930002
23308.25	100	78	2	0	1	6	11	12	1	0	0	stim012_stimuli_original_vehicles_boats_4.png	T	0	0	0	109.439511300065	109.639513100032
23408.25	100	79	2	0	1	7	1	3	0	0	0	stim002_stimuli_original_animals_birds_2.png	D	0	0	0	109.839519700035	110.039519299986
23508.25	100	80	2	0	1	8	11	2	1	0	1	stim012_stimuli_original_vehicles_boats_4.png	C	0	0	0	110.239530100022	110.439530000091
23608.25	100	81	2	0	1	9	3	5	0	0	0	stim004_stimuli_original_animals_birds_4.png	F	0	0	0	110.639544600039	110.839540100074
23708.25	100	82	2	0	1	10	4	15	0	0	0	stim005_stimuli_original_animals_fish_1.png	Y	0	0	0	111.039557600045	111.23955310008
23808.25	100	83	2	0	1	11	0	7	0	0	0	stim001_stimuli_original_animals_birds_1.png	J	0	0	0	111.439563699998	111.639561900054
23908.25	100	84	2	0	1	12	9	11	0	1	0	stim010_stimuli_original_vehicles_boats_2.png	R	0	0	0	111.839575099992	112.039573900052
24008.25	100	85	2	0	1	13	13	6	0	0	0	stim014_stimuli_original_vehicles_planes_2.png	G	0	0	0	112.239586399985	112.439585900051
24108.25	100	86	2	0	1	14	7	11	0	1	0	stim008_stimuli_original_animals_fish_4.png	R	0	0	0	112.639597300091	112.839619000093
24208.25	100	87	2	0	1	15	12	9	0	0	0	stim013_stimuli_original_vehicles_planes_1.png	L	0	0	0	113.039610200096	113.23960770003
24308.25	100	88	2	0	1	16	11	8	0	0	0	stim012_stimuli_original_vehicles_boats_4.png	K	0	0	0	113.439619900077	113.639619300026
24408.25	100	89	2	0	1	17	15	4	0	0	0	stim016_stimuli_original_vehicles_planes_4.png	E	0	0	0	113.839628300047	114.039636400063
24508.25	100	90	2	0	1	18	4	15	0	0	0	stim005_stimuli_original_animals_fish_1.png	Y	0	0	0	114.239643400069	114.439643700025
24608.25	100	91	2	0	1	19	8	11	0	0	0	stim009_stimuli_original_vehicles_boats_1.png	R	0	0	0	114.639660999994	114.839657300035
24708.25	100	92	2	0	1	20	9	12	0	0	0	stim010_stimuli_original_vehicles_boats_2.png	T	0	0	0	115.039667600067	115.239667600021
24808.25	100	93	2	0	1	21	11	7	1	0	0	stim012_stimuli_original_vehicles_boats_4.png	J	0	0	0	115.439678000053	115.639675999992
24908.25	100	94	2	0	1	22	6	13	0	0	0	stim007_stimuli_original_animals_fish_3.png	U	0	0	0	115.839690600056	116.039688499994
25008.25	100	95	2	0	1	23	11	9	1	0	1	stim012_stimuli_original_vehicles_boats_4.png	L	f	116.232226200053	1	116.239701700048	116.43970019999
25108.25	100	96	2	0	1	24	7	0	0	0	0	stim008_stimuli_original_animals_fish_4.png	A	0	0	0	116.639715200057	116.839711799985
25208.25	100	97	2	0	1	25	15	4	0	0	0	stim016_stimuli_original_vehicles_planes_4.png	E	0	0	0	117.039723600028	117.23972260009
25308.25	100	98	2	0	1	26	5	3	0	0	0	stim006_stimuli_original_animals_fish_2.png	D	0	0	0	117.439735100023	117.639734400087
25408.25	100	99	2	0	1	27	2	11	0	1	0	stim003_stimuli_original_animals_birds_3.png	R	0	0	0	117.839744500001	118.039747700095
25508.25	100	100	2	0	1	28	3	1	0	0	0	stim004_stimuli_original_animals_birds_4.png	B	0	0	0	118.239755599992	118.439757200074
25608.25	100	101	2	0	1	29	12	11	0	1	0	stim013_stimuli_original_vehicles_planes_1.png	R	0	0	0	118.639768599998	118.839768300066
25708.25	100	102	2	0	1	30	11	8	0	0	0	stim012_stimuli_original_vehicles_boats_4.png	K	0	0	0	119.03977760009	119.239780500066
25808.25	100	103	2	0	1	31	0	14	0	0	0	stim001_stimuli_original_animals_birds_1.png	V	0	0	0	119.439790000091	119.639792100061
25908.25	100	104	2	0	1	32	1	6	0	0	0	stim002_stimuli_original_animals_birds_2.png	G	0	0	0	119.839801000082	120.039800700033
26008.25	100	105	2	0	1	33	14	10	0	0	0	stim015_stimuli_original_vehicles_planes_3.png	Q	0	0	0	120.239812100073	120.439812600031
26108.25	100	106	2	0	1	34	13	2	0	0	0	stim014_stimuli_original_vehicles_planes_2.png	C	0	0	0	120.639826000086	120.839824900031
26208.25	100	107	2	0	1	35	10	5	0	0	0	stim011_stimuli_original_vehicles_boats_3.png	F	0	0	0	121.039836000069	121.23983570002
27112.5	100	108	3	1	38	0	5	0	0	0	0	stim006_stimuli_original_animals_fish_2.png	A	0	0	0	124.656639000052	124.856628400041
27212.5	100	109	3	1	38	1	7	15	0	0	0	stim008_stimuli_original_animals_fish_4.png	Y	0	0	0	125.056640800089	125.25664450007
27312.5	100	110	3	1	38	2	9	11	0	0	0	stim010_stimuli_original_vehicles_boats_2.png	R	0	0	0	125.456654300098	125.656650900026
27412.5	100	111	3	1	38	3	12	7	0	0	0	stim013_stimuli_original_vehicles_planes_1.png	J	0	0	0	125.856688300031	126.056660000002
27512.5	100	112	3	1	38	4	1	3	1	0	0	stim002_stimuli_original_animals_birds_2.png	D	0	0	0	126.256678100093	126.456677900045
27612.5	100	113	3	1	38	5	0	2	0	0	0	stim001_stimuli_original_animals_birds_1.png	C	0	0	0	126.656687400071	126.856685000006
27712.5	100	114	3	1	38	6	1	13	1	0	0	stim002_stimuli_original_animals_birds_2.png	U	0	0	0	127.056681100046	127.256694999989
27812.5	100	115	3	1	38	7	4	10	0	0	0	stim005_stimuli_original_animals_fish_1.png	Q	0	0	0	127.456706600031	127.656706200098
27912.5	100	116	3	1	38	8	13	4	0	0	0	stim014_stimuli_original_vehicles_planes_2.png	E	0	0	0	127.856717200018	128.056718600099
28012.5	100	117	3	1	38	9	8	14	0	0	0	stim009_stimuli_original_vehicles_boats_1.png	V	0	0	0	128.25673090003	128.456737400033
28112.5	100	118	3	1	38	10	1	8	0	0	0	stim002_stimuli_original_animals_birds_2.png	K	0	0	0	128.656738799997	128.856741600088
28212.5	100	119	3	1	38	11	11	6	0	0	0	stim012_stimuli_original_vehicles_boats_4.png	G	0	0	0	129.056758400053	129.256751200068
28312.5	100	120	3	1	38	12	10	2	0	1	0	stim011_stimuli_original_vehicles_boats_3.png	C	0	0	0	129.456762799993	129.656772600021
28412.5	100	121	3	1	38	13	3	9	0	0	0	stim004_stimuli_original_animals_birds_4.png	L	0	0	0	129.85676980007	130.05679380009
28512.5	100	122	3	1	38	14	15	2	0	1	1	stim016_stimuli_original_vehicles_planes_4.png	C	f	130.249364900053	1	130.256784800091	130.456791200093
28612.5	100	123	3	1	38	15	6	5	0	0	0	stim007_stimuli_original_animals_fish_3.png	F	0	0	0	130.6567983001	130.856796800043
28712.5	100	124	3	1	38	16	14	12	0	0	0	stim015_stimuli_original_vehicles_planes_3.png	T	0	0	0	131.056809800095	131.256795200054
28812.5	100	125	3	1	38	17	2	1	0	0	0	stim003_stimuli_original_animals_birds_3.png	B	0	0	0	131.456820800086	131.656819100026
28912.5	100	126	3	1	38	18	1	2	0	0	0	stim002_stimuli_original_animals_birds_2.png	C	0	0	0	131.856828900054	132.056827799999
29012.5	100	127	3	1	38	19	12	14	0	0	0	stim013_stimuli_original_vehicles_planes_1.png	V	0	0	0	132.256842800067	132.456843100023
29112.5	100	128	3	1	38	20	5	6	0	0	0	stim006_stimuli_original_animals_fish_2.png	G	0	0	0	132.65685420006	132.856854100013
29212.5	100	129	3	1	38	21	2	15	1	0	0	stim003_stimuli_original_animals_birds_3.png	Y	0	0	0	133.056863300037	133.2568493
29312.5	100	130	3	1	38	22	9	3	0	0	0	stim010_stimuli_original_vehicles_boats_2.png	D	0	0	0	133.456878700061	133.656873500091
29412.5	100	131	3	1	38	23	2	10	1	0	0	stim003_stimuli_original_animals_birds_3.png	Q	0	0	0	133.856891700067	134.056885100086
29512.5	100	132	3	1	38	24	6	11	0	0	0	stim007_stimuli_original_animals_fish_3.png	R	0	0	0	134.256896600011	134.456895900075
29612.5	100	133	3	1	38	25	8	1	0	0	0	stim009_stimuli_original_vehicles_boats_1.png	B	0	0	0	134.65690870001	134.856908000074
29712.5	100	134	3	1	38	26	14	8	0	0	0	stim015_stimuli_original_vehicles_planes_3.png	K	0	0	0	135.056902799988	135.256919200066
29812.5	100	135	3	1	38	27	4	13	0	0	0	stim005_stimuli_original_animals_fish_1.png	U	0	0	0	135.456933400012	135.65692930005
29912.5	100	136	3	1	38	28	10	4	0	0	0	stim011_stimuli_original_vehicles_boats_3.png	E	0	0	0	135.856957799988	136.056941700052
30012.5	100	137	3	1	38	29	13	1	0	1	0	stim014_stimuli_original_vehicles_planes_2.png	B	0	0	0	136.256959900027	136.456952800043
30112.5	100	138	3	1	38	30	2	0	0	0	0	stim003_stimuli_original_animals_birds_3.png	A	0	0	0	136.656962900073	136.856963800034
30212.5	100	139	3	1	38	31	3	1	0	1	1	stim004_stimuli_original_animals_birds_4.png	B	0	0	0	137.056973800063	137.256974100019
30312.5	100	140	3	1	38	32	7	12	0	0	0	stim008_stimuli_original_animals_fish_4.png	T	f	137.648807900026	1	137.456992899999	137.656987200025
30412.5	100	141	3	1	38	33	11	9	0	0	0	stim012_stimuli_original_vehicles_boats_4.png	L	0	0	0	137.85699660005	138.056989400066
30512.5	100	142	3	1	38	34	15	7	0	0	0	stim016_stimuli_original_vehicles_planes_4.png	J	0	0	0	138.257008500048	138.457012700033
30612.5	100	143	3	1	38	35	0	5	0	0	0	stim001_stimuli_original_animals_birds_1.png	F	0	0	0	138.657014800003	138.85700660001
31275	100	144	4	0	4	0	12	15	0	0	0	stim013_stimuli_original_vehicles_planes_1.png	Y	0	0	0	141.307099200087	141.507095700013
31375	100	145	4	0	4	1	10	12	0	0	0	stim011_stimuli_original_vehicles_boats_3.png	T	0	0	0	141.707108100061	141.90708959999
31475	100	146	4	0	4	2	0	9	0	0	0	stim001_stimuli_original_animals_birds_1.png	L	0	0	0	142.107117800042	142.307115700096
31575	100	147	4	0	4	3	13	7	0	0	0	stim014_stimuli_original_vehicles_planes_2.png	J	0	0	0	142.507133000065	142.707125200075
31675	100	148	4	0	4	4	1	2	0	0	0	stim002_stimuli_original_animals_birds_2.png	C	0	0	0	142.907150399988	143.107138300082
31775	100	149	4	0	4	5	7	4	0	1	0	stim008_stimuli_original_animals_fish_4.png	E	0	0	0	143.307151300018	143.507148400065
31875	100	150	4	0	4	6	5	3	1	0	0	stim006_stimuli_original_animals_fish_2.png	D	0	0	0	143.707160599995	143.907162900083
31975	100	151	4	0	4	7	2	4	0	1	0	stim003_stimuli_original_animals_birds_3.png	E	0	0	0	144.107173299999	144.307170500048
32075	100	152	4	0	4	8	5	0	1	0	1	stim006_stimuli_original_animals_fish_2.png	A	0	0	0	144.507182900095	144.707185000065
32175	100	153	4	0	4	9	4	1	0	0	0	stim005_stimuli_original_animals_fish_1.png	B	0	0	0	144.907195000094	145.107179500046
32275	100	154	4	0	4	10	6	14	0	0	0	stim007_stimuli_original_animals_fish_3.png	V	0	0	0	145.307210200001	145.507213100092
32375	100	155	4	0	4	11	9	8	0	0	0	stim010_stimuli_original_vehicles_boats_2.png	K	0	0	0	145.707207300002	145.907217600034
32475	100	156	4	0	4	12	15	10	0	0	0	stim016_stimuli_original_vehicles_planes_4.png	Q	0	0	0	146.107227500062	146.307227600017
32575	100	157	4	0	4	13	11	5	0	0	0	stim012_stimuli_original_vehicles_boats_4.png	F	0	0	0	146.507239700062	146.707223600009
32675	100	158	4	0	4	14	14	13	0	0	0	stim015_stimuli_original_vehicles_planes_3.png	U	0	0	0	146.907254000078	147.107251000009
32775	100	159	4	0	4	15	3	6	0	0	0	stim004_stimuli_original_animals_birds_4.png	G	0	0	0	147.307261600043	147.507261499995
32875	100	160	4	0	4	16	8	11	0	0	0	stim009_stimuli_original_vehicles_boats_1.png	R	0	0	0	147.707278300077	147.9072722001
32975	100	161	4	0	4	17	5	4	0	0	0	stim006_stimuli_original_animals_fish_2.png	E	0	0	0	148.107283800025	148.307282900088
33075	100	162	4	0	4	18	4	5	0	0	0	stim005_stimuli_original_animals_fish_1.png	F	0	0	0	148.507295100018	148.707296300097
33175	100	163	4	0	4	19	11	8	0	0	0	stim012_stimuli_original_vehicles_boats_4.png	K	0	0	0	148.907305800007	149.107311800006
33275.25	100	164	4	0	4	20	6	3	0	0	0	stim007_stimuli_original_animals_fish_3.png	D	0	0	0	149.307317600003	149.507316000061
33375.25	100	165	4	0	4	21	13	14	0	0	0	stim014_stimuli_original_vehicles_planes_2.png	V	0	0	0	149.707327100099	149.907320400001
33475.25	100	166	4	0	4	22	5	11	0	0	0	stim006_stimuli_original_animals_fish_2.png	R	0	0	0	150.107338600093	150.307339700055
33575.25	100	167	4	0	4	23	10	15	0	0	0	stim011_stimuli_original_vehicles_boats_3.png	Y	0	0	0	150.507351899985	150.707350300043
33675.25	100	168	4	0	4	24	8	9	0	0	0	stim009_stimuli_original_vehicles_boats_1.png	L	0	0	0	150.907363100094	151.107364500058
33775.25	100	169	4	0	4	25	14	6	0	0	0	stim015_stimuli_original_vehicles_planes_3.png	G	0	0	0	151.307372500072	151.507396400091
33875.25	100	170	4	0	4	26	1	4	0	0	0	stim002_stimuli_original_animals_birds_2.png	E	0	0	0	151.707385900081	151.907386300038
33975.25	100	171	4	0	4	27	0	5	0	1	0	stim001_stimuli_original_animals_birds_1.png	F	0	0	0	152.107396900072	152.307397800032
34075.25	100	172	4	0	4	28	4	2	1	0	0	stim005_stimuli_original_animals_fish_1.png	C	0	0	0	152.507398099988	152.707407000009
34175.25	100	173	4	0	4	29	3	5	0	1	0	stim004_stimuli_original_animals_birds_4.png	F	0	0	0	152.907426299993	153.107419800013
34275.25	100	174	4	0	4	30	4	7	1	0	1	stim005_stimuli_original_animals_fish_1.png	J	0	0	0	153.307429700042	153.507428699988
34375.25	100	175	4	0	4	31	2	1	0	0	0	stim003_stimuli_original_animals_birds_3.png	B	0	0	0	153.707440700033	153.907440599985
34475.25	100	176	4	0	4	32	7	13	0	0	0	stim008_stimuli_original_animals_fish_4.png	U	0	0	0	154.107456000056	154.307452000096
34575.25	100	177	4	0	4	33	9	0	0	0	0	stim010_stimuli_original_vehicles_boats_2.png	A	f	154.499987700023	1	154.507466300041	154.707437800011
34675.25	100	178	4	0	4	34	12	10	0	0	0	stim013_stimuli_original_vehicles_planes_1.png	Q	0	0	0	154.907452700078	155.107476000092
34775.25	100	179	4	0	4	35	15	12	0	0	0	stim016_stimuli_original_vehicles_planes_4.png	T	0	0	0	155.307461200049	155.507476400002
35433.5	100	180	5	1	19	0	1	10	0	0	0	stim002_stimuli_original_animals_birds_2.png	Q	0	0	0	157.940896000015	158.140890800045
35533.5	100	181	5	1	19	1	4	9	0	0	0	stim005_stimuli_original_animals_fish_1.png	L	0	0	0	158.34090290009	158.540902600042
35633.5	100	182	5	1	19	2	12	15	0	0	0	stim013_stimuli_original_vehicles_planes_1.png	Y	0	0	0	158.74091510009	158.940915800049
35733.5	100	183	5	1	19	3	6	8	0	0	0	stim007_stimuli_original_animals_fish_3.png	K	0	0	0	159.140928100096	159.340924100019
35833.5	100	184	5	1	19	4	5	6	0	0	0	stim006_stimuli_original_animals_fish_2.png	G	0	0	0	159.540942099993	159.740938000032
35933.5	100	185	5	1	19	5	15	14	0	0	0	stim016_stimuli_original_vehicles_planes_4.png	V	0	0	0	159.940956100007	160.140948800021
36033.5	100	186	5	1	19	6	7	11	0	0	0	stim008_stimuli_original_animals_fish_4.png	R	0	0	0	160.3409675	160.540958199999
36133.5	100	187	5	1	19	7	10	1	0	0	0	stim011_stimuli_original_vehicles_boats_3.png	B	0	0	0	160.740971800056	160.940959400032
36233.5	100	188	5	1	19	8	9	0	0	0	0	stim010_stimuli_original_vehicles_boats_2.png	A	0	0	0	161.140987800085	161.340982900001
36333.5	100	189	5	1	19	9	5	13	1	0	0	stim006_stimuli_original_animals_fish_2.png	U	0	0	0	161.540979800047	161.740995500004
36433.5	100	190	5	1	19	10	0	2	0	0	0	stim001_stimuli_original_animals_birds_1.png	C	0	0	0	161.941004800028	162.1410051001
36533.5	100	191	5	1	19	11	5	3	1	0	0	stim006_stimuli_original_animals_fish_2.png	D	0	0	0	162.341016400023	162.541000000085
36633.5	100	192	5	1	19	12	13	8	0	1	0	stim014_stimuli_original_vehicles_planes_2.png	K	0	0	0	162.741032600054	162.941051500035
36733.5	100	193	5	1	19	13	14	7	0	0	0	stim015_stimuli_original_vehicles_planes_3.png	J	0	0	0	163.141038800008	163.341038900078
36833.5	100	194	5	1	19	14	3	8	0	1	1	stim004_stimuli_original_animals_birds_4.png	K	0	0	0	163.541048499988	163.741051900084
36933.5	100	195	5	1	19	15	11	12	0	0	0	stim012_stimuli_original_vehicles_boats_4.png	T	0	0	0	163.941060599987	164.141061100061
37033.5	100	196	5	1	19	16	2	4	0	0	0	stim003_stimuli_original_animals_birds_3.png	E	0	0	0	164.341072999989	164.541075700079
37133.5	100	197	5	1	19	17	8	5	0	0	0	stim009_stimuli_original_vehicles_boats_1.png	F	0	0	0	164.741083400091	164.941069300054
37233.5	100	198	5	1	19	18	5	8	0	0	0	stim006_stimuli_original_animals_fish_2.png	K	0	0	0	165.141096900101	165.341080700047
37333.5	100	199	5	1	19	19	4	2	0	0	0	stim005_stimuli_original_animals_fish_1.png	C	0	0	0	165.541108800098	165.741097000078
37433.5	100	200	5	1	19	20	12	11	0	0	0	stim013_stimuli_original_vehicles_planes_1.png	R	0	0	0	165.941120600095	166.141117200023
37533.5	100	201	5	1	19	21	8	3	1	0	0	stim009_stimuli_original_vehicles_boats_1.png	D	0	0	0	166.341127200052	166.54113040003
37633.5	100	202	5	1	19	22	7	14	0	0	0	stim008_stimuli_original_animals_fish_4.png	V	0	0	0	166.741139000049	166.941140500014
37733.5	100	203	5	1	19	23	8	13	1	0	0	stim009_stimuli_original_vehicles_boats_1.png	U	0	0	0	167.141149200033	167.341150799999
37833.5	100	204	5	1	19	24	3	5	0	1	0	stim004_stimuli_original_animals_birds_4.png	F	0	0	0	167.541165800067	167.741180100013
37933.5	100	205	5	1	19	25	2	0	0	0	0	stim003_stimuli_original_animals_birds_3.png	A	0	0	0	167.941156400018	168.141178200021
38033.5	100	206	5	1	19	26	13	5	0	1	1	stim014_stimuli_original_vehicles_planes_2.png	F	0	0	0	168.341178700095	168.541183200083
38133.5	100	207	5	1	19	27	0	9	0	0	0	stim001_stimuli_original_animals_birds_1.png	L	0	0	0	168.741193299997	168.941194600076
38233.5	100	208	5	1	19	28	1	10	0	0	0	stim002_stimuli_original_animals_birds_2.png	Q	0	0	0	169.141207800014	169.341205800069
38333.5	100	209	5	1	19	29	11	7	0	0	0	stim012_stimuli_original_vehicles_boats_4.png	J	0	0	0	169.541216699989	169.741218800074
38433.5	100	210	5	1	19	30	14	15	0	0	0	stim015_stimuli_original_vehicles_planes_3.png	Y	0	0	0	169.941222800058	170.141230100067
38533.5	100	211	5	1	19	31	6	5	0	0	0	stim007_stimuli_original_animals_fish_3.png	F	0	0	0	170.341238000081	170.54122480005
38633.5	100	212	5	1	19	32	8	6	0	0	0	stim009_stimuli_original_vehicles_boats_1.png	G	f	170.733769200044	0	170.741255700006	170.941250500036
38733.5	100	213	5	1	19	33	15	12	0	0	0	stim016_stimuli_original_vehicles_planes_4.png	T	0	0	0	171.141263100086	171.341262600035
38833.5	100	214	5	1	19	34	9	4	0	0	0	stim010_stimuli_original_vehicles_boats_2.png	E	0	0	0	171.541276100092	171.741273900028
38933.5	100	215	5	1	19	35	10	1	0	0	0	stim011_stimuli_original_vehicles_boats_3.png	B	0	0	0	171.941253900062	172.141286500031
40600.25	100	216	6	0	31	0	8	7	0	0	0	stim009_stimuli_original_vehicles_boats_1.png	J	0	0	0	178.608114500064	178.80811089999
40700.25	100	217	6	0	31	1	7	14	0	0	0	stim008_stimuli_original_animals_fish_4.png	V	0	0	0	179.008122000028	179.208124099998
40800.25	100	218	6	0	31	2	10	13	0	0	0	stim011_stimuli_original_vehicles_boats_3.png	U	0	0	0	179.408133800025	179.608136700001
40900.25	100	219	6	0	31	3	9	10	0	0	0	stim010_stimuli_original_vehicles_boats_2.png	Q	0	0	0	179.808144700015	180.008143800078
41000.25	100	220	6	0	31	4	1	8	1	0	0	stim002_stimuli_original_animals_birds_2.png	K	0	0	0	180.20816020004	180.408161500003
41100.25	100	221	6	0	31	5	11	15	0	0	0	stim012_stimuli_original_vehicles_boats_4.png	Y	0	0	0	180.608170300024	180.808168100077
41200.25	100	222	6	0	31	6	1	4	1	0	1	stim002_stimuli_original_animals_birds_2.png	E	0	0	0	181.00818200002	181.208178500063
41300.25	100	223	6	0	31	7	5	9	0	0	0	stim006_stimuli_original_animals_fish_2.png	L	f	181.400790899992	1	181.408190699993	181.608191200066
41400.25	100	224	6	0	31	8	12	12	0	0	0	stim013_stimuli_original_vehicles_planes_1.png	T	0	0	0	181.808201400097	182.008202300058
41500.25	100	225	6	0	31	9	4	2	0	0	0	stim005_stimuli_original_animals_fish_1.png	C	0	0	0	182.208212000085	182.408211500035
41600.25	100	226	6	0	31	10	1	5	0	1	0	stim002_stimuli_original_animals_birds_2.png	F	0	0	0	182.608222400071	182.808223900036
41700.25	100	227	6	0	31	11	3	6	0	0	0	stim004_stimuli_original_animals_birds_4.png	G	0	0	0	183.008234700072	183.208234600024
41800.25	100	228	6	0	31	12	6	5	0	1	0	stim007_stimuli_original_animals_fish_3.png	F	0	0	0	183.408245900064	183.608246700023
41900.25	100	229	6	0	31	13	0	11	0	0	0	stim001_stimuli_original_animals_birds_1.png	R	0	0	0	183.808284600032	184.008260600036
42000.25	100	230	6	0	31	14	15	3	0	0	0	stim016_stimuli_original_vehicles_planes_4.png	D	0	0	0	184.208268100047	184.408266999992
42100.25	100	231	6	0	31	15	2	0	0	0	0	stim003_stimuli_original_animals_birds_3.png	A	0	0	0	184.608282000059	184.808280800004
42200.25	100	232	6	0	31	16	14	5	0	0	0	stim015_stimuli_original_vehicles_planes_3.png	F	0	0	0	185.008289900026	185.20829119999
42300.25	100	233	6	0	31	17	13	1	0	0	0	stim014_stimuli_original_vehicles_planes_2.png	B	0	0	0	185.408302300028	185.608302400098
42400.25	100	234	6	0	31	18	1	13	0	0	0	stim002_stimuli_original_animals_birds_2.png	U	0	0	0	185.808315100032	186.008312800084
42500.25	100	235	6	0	31	19	5	14	0	0	0	stim006_stimuli_original_animals_fish_2.png	V	0	0	0	186.208325300016	186.40832789999
42600.25	100	236	6	0	31	20	0	2	0	0	0	stim001_stimuli_original_animals_birds_1.png	C	0	0	0	186.608334699995	186.808335300069
42700.25	100	237	6	0	31	21	3	15	0	0	0	stim004_stimuli_original_animals_birds_4.png	Y	0	0	0	187.008345999988	187.208346200059
42800.25	100	238	6	0	31	22	11	0	0	0	0	stim012_stimuli_original_vehicles_boats_4.png	A	0	0	0	187.40835640009	187.608358100057
42900.25	100	239	6	0	31	23	5	6	1	0	0	stim006_stimuli_original_animals_fish_2.png	G	0	0	0	187.808369200095	188.008368500043
43000.25	100	240	6	0	31	24	6	3	0	0	0	stim007_stimuli_original_animals_fish_3.png	D	0	0	0	188.2083821001	188.408380100038
43100.25	100	241	6	0	31	25	5	1	1	0	1	stim006_stimuli_original_animals_fish_2.png	B	0	0	0	188.608390800073	188.808393600048
43200.25	100	242	6	0	31	26	2	4	0	0	0	stim003_stimuli_original_animals_birds_3.png	E	0	0	0	189.008401900064	189.208405700047
43300.25	100	243	6	0	31	27	12	12	0	0	0	stim013_stimuli_original_vehicles_planes_1.png	T	0	0	0	189.40841360006	189.608437800081
43400.25	100	244	6	0	31	28	9	5	0	0	0	stim010_stimuli_original_vehicles_boats_2.png	F	0	0	0	189.80843850004	190.008437000099
43500.5	100	245	6	0	31	29	4	1	0	1	0	stim005_stimuli_original_animals_fish_1.png	B	0	0	0	190.208448300022	190.408447900089
43600.5	100	246	6	0	31	30	15	11	0	0	0	stim016_stimuli_original_vehicles_planes_4.png	R	0	0	0	190.608457199996	190.808460000088
43700.5	100	247	6	0	31	31	8	1	0	1	0	stim009_stimuli_original_vehicles_boats_1.png	B	0	0	0	191.008469699998	191.208469400066
43800.5	100	248	6	0	31	32	10	9	0	0	0	stim011_stimuli_original_vehicles_boats_3.png	L	0	0	0	191.408482500003	191.608484200086
43900.5	100	249	6	0	31	33	13	10	0	0	0	stim014_stimuli_original_vehicles_planes_2.png	Q	0	0	0	191.808494800003	192.008492000052
44000.5	100	250	6	0	31	34	14	7	0	0	0	stim015_stimuli_original_vehicles_planes_3.png	J	0	0	0	192.208508200012	192.408505600062
44100.5	100	251	6	0	31	35	7	8	0	0	0	stim008_stimuli_original_animals_fish_4.png	K	0	0	0	192.608516100096	192.808517400059
44717	100	252	7	1	27	0	8	13	0	0	0	stim009_stimuli_original_vehicles_boats_1.png	U	0	0	0	195.075273600058	195.2752700001
44817	100	253	7	1	27	1	1	11	0	0	0	stim002_stimuli_original_animals_birds_2.png	R	0	0	0	195.475281700026	195.675287800026
44917	100	254	7	1	27	2	14	15	0	0	0	stim015_stimuli_original_vehicles_planes_3.png	Y	0	0	0	195.875292600016	196.075292100082
45017	100	255	7	1	27	3	13	1	0	0	0	stim014_stimuli_original_vehicles_planes_2.png	B	0	0	0	196.275306300027	196.475299100042
45117	100	256	7	1	27	4	12	0	1	0	0	stim013_stimuli_original_vehicles_planes_1.png	A	0	0	0	196.675309200073	196.875317200087
45217	100	257	7	1	27	5	5	12	0	0	0	stim006_stimuli_original_animals_fish_2.png	T	0	0	0	197.075322300079	197.275324100046
45317	100	258	7	1	27	6	12	5	1	0	0	stim013_stimuli_original_vehicles_planes_1.png	F	0	0	0	197.475335000083	197.67533160001
45417	100	259	7	1	27	7	6	8	0	0	0	stim007_stimuli_original_animals_fish_3.png	K	0	0	0	197.875342400046	198.075346000027
45517	100	260	7	1	27	8	10	3	0	0	0	stim011_stimuli_original_vehicles_boats_3.png	D	0	0	0	198.275357500068	198.475354599999
45617	100	261	7	1	27	9	2	7	0	0	0	stim003_stimuli_original_animals_birds_3.png	J	0	0	0	198.675373100094	198.87536960002
45717	100	262	7	1	27	10	7	14	0	0	0	stim008_stimuli_original_animals_fish_4.png	V	0	0	0	199.075377500034	199.275376400095
45817	100	263	7	1	27	11	12	10	0	0	0	stim013_stimuli_original_vehicles_planes_1.png	Q	0	0	0	199.47540850006	199.67537479999
45917	100	264	7	1	27	12	9	5	0	1	0	stim010_stimuli_original_vehicles_boats_2.png	F	0	0	0	199.875399900018	200.075390700018
46017	100	265	7	1	27	13	4	9	0	0	0	stim005_stimuli_original_animals_fish_1.png	L	0	0	0	200.275409599999	200.475413300097
46117	100	266	7	1	27	14	15	5	0	1	1	stim016_stimuli_original_vehicles_planes_4.png	F	0	0	0	200.675420299987	200.875422900077
46217	100	267	7	1	27	15	0	6	0	0	0	stim001_stimuli_original_animals_birds_1.png	G	0	0	0	201.075434099999	201.275433100061
46317	100	268	7	1	27	16	3	2	0	0	0	stim004_stimuli_original_animals_birds_4.png	C	0	0	0	201.47544290009	201.675453700009
46417	100	269	7	1	27	17	11	4	0	0	0	stim012_stimuli_original_vehicles_boats_4.png	E	0	0	0	201.875460600015	202.075468900031
46517	100	270	7	1	27	18	4	11	0	0	0	stim005_stimuli_original_animals_fish_1.png	R	0	0	0	202.275467500091	202.475467300043
46617	100	271	7	1	27	19	2	3	0	0	0	stim003_stimuli_original_animals_birds_3.png	D	0	0	0	202.675481899991	202.87547920004
46717	100	272	7	1	27	20	6	0	0	0	0	stim007_stimuli_original_animals_fish_3.png	A	0	0	0	203.075490000076	203.275489700027
46817.25	100	273	7	1	27	21	5	15	1	0	0	stim006_stimuli_original_animals_fish_2.png	Y	0	0	0	203.47550280008	203.675505800056
46917.25	100	274	7	1	27	22	9	4	0	0	0	stim010_stimuli_original_vehicles_boats_2.png	E	0	0	0	203.875512300059	204.075512200012
47017.25	100	275	7	1	27	23	5	9	1	0	0	stim006_stimuli_original_animals_fish_2.png	L	0	0	0	204.275509200059	204.475523600006
47117.25	100	276	7	1	27	24	10	12	0	0	0	stim011_stimuli_original_vehicles_boats_3.png	T	0	0	0	204.675548800034	204.8755330001
47217.25	100	277	7	1	27	25	14	7	0	0	0	stim015_stimuli_original_vehicles_planes_3.png	J	0	0	0	205.075547600049	205.275553000043
47317.25	100	278	7	1	27	26	7	2	0	0	0	stim008_stimuli_original_animals_fish_4.png	C	0	0	0	205.475557900034	205.675556800095
47417.25	100	279	7	1	27	27	3	10	0	0	0	stim004_stimuli_original_animals_birds_4.png	Q	0	0	0	205.875572600053	206.075566000072
47517.25	100	280	7	1	27	28	8	6	0	0	0	stim009_stimuli_original_vehicles_boats_1.png	G	0	0	0	206.275581000024	206.475577800069
47617.25	100	281	7	1	27	29	5	12	0	1	0	stim006_stimuli_original_animals_fish_2.png	T	0	0	0	206.675589299994	206.875573400059
47717.25	100	282	7	1	27	30	12	5	0	0	0	stim013_stimuli_original_vehicles_planes_1.png	F	0	0	0	207.075601899996	207.275601900066
47817.25	100	283	7	1	27	31	0	12	0	1	1	stim001_stimuli_original_animals_birds_1.png	T	0	0	0	207.475612300099	207.675613000058
47917.25	100	284	7	1	27	32	1	13	0	0	0	stim002_stimuli_original_animals_birds_2.png	U	0	0	0	207.875627200003	208.075622600038
48017.25	100	285	7	1	27	33	15	14	0	0	0	stim016_stimuli_original_vehicles_planes_4.png	V	0	0	0	208.275635000085	208.475635000039
48117.25	100	286	7	1	27	34	11	1	0	0	0	stim012_stimuli_original_vehicles_boats_4.png	B	0	0	0	208.675645300071	208.875645700027
48217.25	100	287	7	1	27	35	13	8	0	0	0	stim014_stimuli_original_vehicles_planes_2.png	K	0	0	0	209.075662099989	209.275657800026
48846.25	100	288	8	0	26	0	2	13	0	0	0	stim003_stimuli_original_animals_birds_3.png	U	0	0	0	211.59239060001	211.792385000037
48946.25	100	289	8	0	26	1	0	9	0	0	0	stim001_stimuli_original_animals_birds_1.png	L	0	0	0	211.992381300079	212.192394500016
49046.25	100	290	8	0	26	2	11	15	0	0	0	stim012_stimuli_original_vehicles_boats_4.png	Y	0	0	0	212.392390500056	212.592393700033
49146.25	100	291	8	0	26	3	3	11	0	0	0	stim004_stimuli_original_animals_birds_4.png	R	0	0	0	212.792402400053	212.992402000003
49246.25	100	292	8	0	26	4	4	14	0	0	0	stim005_stimuli_original_animals_fish_1.png	V	0	0	0	213.192413900048	213.392412599991
49346.25	100	293	8	0	26	5	13	0	0	0	0	stim014_stimuli_original_vehicles_planes_2.png	A	0	0	0	213.592428200063	213.792449000059
49446.25	100	294	8	0	26	6	3	10	1	1	0	stim004_stimuli_original_animals_birds_4.png	Q	0	0	0	213.99243600003	214.192449200084
49546.25	100	295	8	0	26	7	14	8	0	0	0	stim015_stimuli_original_vehicles_planes_3.png	K	0	0	0	214.392476900015	214.592463100096
49646.25	100	296	8	0	26	8	3	10	1	1	1	stim004_stimuli_original_animals_birds_4.png	Q	0	0	0	214.792470399989	214.992472100072
49746.25	100	297	8	0	26	9	15	6	0	0	0	stim016_stimuli_original_vehicles_planes_4.png	G	0	0	0	215.192482499988	215.392489099992
49846.25	100	298	8	0	26	10	10	12	0	0	0	stim011_stimuli_original_vehicles_boats_3.png	T	f	215.784288400086	1	215.592494499986	215.792493600049
49946.25	100	299	8	0	26	11	5	10	0	0	0	stim006_stimuli_original_animals_fish_2.png	Q	0	0	0	215.992504500085	216.192505400046
50046.25	100	300	8	0	26	12	1	4	0	0	0	stim002_stimuli_original_animals_birds_2.png	E	0	0	0	216.392515900079	216.592520200065
50146.25	100	301	8	0	26	13	7	5	0	0	0	stim008_stimuli_original_animals_fish_4.png	F	0	0	0	216.792542000068	216.992523699999
50246.25	100	302	8	0	26	14	8	1	0	0	0	stim009_stimuli_original_vehicles_boats_1.png	B	0	0	0	217.19254050008	217.392540200031
50346.25	100	303	8	0	26	15	6	3	0	0	0	stim007_stimuli_original_animals_fish_3.png	D	0	0	0	217.592543400009	217.792536600027
50446.5	100	304	8	0	26	16	9	2	0	0	0	stim010_stimuli_original_vehicles_boats_2.png	C	0	0	0	217.992547600064	218.192546900013
50546.5	100	305	8	0	26	17	12	7	0	0	0	stim013_stimuli_original_vehicles_planes_1.png	J	0	0	0	218.39256190008	218.592561000027
50646.5	100	306	8	0	26	18	7	12	0	0	0	stim008_stimuli_original_animals_fish_4.png	T	0	0	0	218.792571200058	218.992606400046
50746.5	100	307	8	0	26	19	2	9	0	0	0	stim003_stimuli_original_animals_birds_3.png	L	0	0	0	219.19258240005	219.392580799991
50846.5	100	308	8	0	26	20	3	6	0	0	0	stim004_stimuli_original_animals_birds_4.png	G	0	0	0	219.592612000066	219.792591800098
50946.5	100	309	8	0	26	21	1	8	0	0	0	stim002_stimuli_original_animals_birds_2.png	K	0	0	0	219.992629099987	220.1926042001
51046.5	100	310	8	0	26	22	5	7	0	0	0	stim006_stimuli_original_animals_fish_2.png	J	0	0	0	220.392616700032	220.592618499999
51146.5	100	311	8	0	26	23	4	1	0	0	0	stim005_stimuli_original_animals_fish_1.png	B	0	0	0	220.792625400005	220.992626900086
51246.5	100	312	8	0	26	24	10	5	0	0	0	stim011_stimuli_original_vehicles_boats_3.png	F	0	0	0	221.192640400026	221.392636500066
51346.5	100	313	8	0	26	25	12	10	0	0	0	stim013_stimuli_original_vehicles_planes_1.png	Q	0	0	0	221.592681800015	221.792648200062
51446.5	100	314	8	0	26	26	6	15	0	0	0	stim007_stimuli_original_animals_fish_3.png	Y	0	0	0	221.992658900097	222.192675300059
51546.5	100	315	8	0	26	27	10	3	1	1	0	stim011_stimuli_original_vehicles_boats_3.png	D	0	0	0	222.392670400091	222.592674600077
51646.5	100	316	8	0	26	28	8	14	0	0	0	stim009_stimuli_original_vehicles_boats_1.png	V	0	0	0	222.792683400097	222.99268070003
51746.5	100	317	8	0	26	29	10	3	1	1	1	stim011_stimuli_original_vehicles_boats_3.png	D	0	0	0	223.192694100086	223.392692600028
51846.5	100	318	8	0	26	30	0	13	0	0	0	stim001_stimuli_original_animals_birds_1.png	U	0	0	0	223.59270690009	223.79270780005
51946.5	100	319	8	0	26	31	14	4	0	0	0	stim015_stimuli_original_vehicles_planes_3.png	E	0	0	0	223.992715800065	224.192729600007
52046.5	100	320	8	0	26	32	11	3	0	0	0	stim012_stimuli_original_vehicles_boats_4.png	D	0	0	0	224.392726500053	224.592728500022
52146.5	100	321	8	0	26	33	15	11	0	0	0	stim016_stimuli_original_vehicles_planes_4.png	R	0	0	0	224.792752000038	224.992739500012
52246.5	100	322	8	0	26	34	9	0	0	0	0	stim010_stimuli_original_vehicles_boats_2.png	A	0	0	0	225.192749600043	225.392749399994
52346.5	100	323	8	0	26	35	13	2	0	0	0	stim014_stimuli_original_vehicles_planes_2.png	C	0	0	0	225.592764600064	225.792759700096
53246.5	100	324	9	1	16	0	1	5	0	0	0	stim002_stimuli_original_animals_birds_2.png	F	0	0	0	229.192896299995	229.392884700093
53346.5	100	325	9	1	16	1	2	9	0	0	0	stim003_stimuli_original_animals_birds_3.png	L	0	0	0	229.592891999986	229.792900200002
53446.5	100	326	9	1	16	2	6	1	0	0	0	stim007_stimuli_original_animals_fish_3.png	B	0	0	0	229.99290740001	230.192908600089
53546.5	100	327	9	1	16	3	15	6	0	0	0	stim016_stimuli_original_vehicles_planes_4.png	G	0	0	0	230.392923200037	230.592922699987
53646.5	100	328	9	1	16	4	8	14	0	0	0	stim009_stimuli_original_vehicles_boats_1.png	V	0	0	0	230.792933500023	230.992933400092
53746.5	100	329	9	1	16	5	5	0	0	1	0	stim006_stimuli_original_animals_fish_2.png	A	0	0	0	231.192942599999	231.392943600076
53846.5	100	330	9	1	16	6	11	3	0	0	0	stim012_stimuli_original_vehicles_boats_4.png	D	0	0	0	231.592957500019	231.792954100063
53946.5	100	331	9	1	16	7	13	0	0	1	1	stim014_stimuli_original_vehicles_planes_2.png	A	0	0	0	231.992967600003	232.192950200057
54046.5	100	332	9	1	16	8	4	12	0	0	0	stim005_stimuli_original_animals_fish_1.png	T	0	0	0	232.392979099997	232.592976400047
54146.5	100	333	9	1	16	9	7	7	0	0	0	stim008_stimuli_original_animals_fish_4.png	J	f	232.785548500018	1	232.792981200037	232.992988500046
54246.5	100	334	9	1	16	10	13	13	1	0	0	stim014_stimuli_original_vehicles_planes_2.png	U	0	0	0	233.192999900086	233.392999200034
54346.5	100	335	9	1	16	11	10	0	0	0	0	stim011_stimuli_original_vehicles_boats_3.png	A	0	0	0	233.593011200079	233.793011300033
54446.5	100	336	9	1	16	12	13	15	1	0	0	stim014_stimuli_original_vehicles_planes_2.png	Y	0	0	0	233.993022500072	234.193002799992
54546.5	100	337	9	1	16	13	12	2	0	0	0	stim013_stimuli_original_vehicles_planes_1.png	C	0	0	0	234.393032700056	234.593041800079
54646.5	100	338	9	1	16	14	14	8	0	0	0	stim015_stimuli_original_vehicles_planes_3.png	K	0	0	0	234.793050000095	234.993042899994
54746.5	100	339	9	1	16	15	9	11	0	0	0	stim010_stimuli_original_vehicles_boats_2.png	R	0	0	0	235.193054800038	235.393054699991
54846.5	100	340	9	1	16	16	0	10	0	0	0	stim001_stimuli_original_animals_birds_1.png	Q	0	0	0	235.593069200055	235.793066499988
54946.5	100	341	9	1	16	17	3	4	0	0	0	stim004_stimuli_original_animals_birds_4.png	E	0	0	0	235.993076600018	236.193079399993
55046.5	100	342	9	1	16	18	4	3	0	0	0	stim005_stimuli_original_animals_fish_1.png	D	0	0	0	236.393078200053	236.593075000099
55146.5	100	343	9	1	16	19	10	0	0	0	0	stim011_stimuli_original_vehicles_boats_3.png	A	0	0	0	236.793112899992	236.993097700062
55246.5	100	344	9	1	16	20	11	9	0	0	0	stim012_stimuli_original_vehicles_boats_4.png	L	0	0	0	237.193109199987	237.393112400081
55346.5	100	345	9	1	16	21	8	14	0	0	0	stim009_stimuli_original_vehicles_boats_1.png	V	f	237.585636400036	0	237.593123900006	237.79312320007
55446.5	100	346	9	1	16	22	2	12	0	0	0	stim003_stimuli_original_animals_birds_3.png	T	0	0	0	237.993148100097	238.193134700065
55546.5	100	347	9	1	16	23	15	13	0	1	0	stim016_stimuli_original_vehicles_planes_4.png	U	0	0	0	238.39314900001	238.593148300075
55646.5	100	348	9	1	16	24	0	10	0	0	0	stim001_stimuli_original_animals_birds_1.png	Q	0	0	0	238.793157100095	238.993156800047
55746.5	100	349	9	1	16	25	13	13	0	1	1	stim014_stimuli_original_vehicles_planes_2.png	U	0	0	0	239.193166700075	239.393168000039
55846.5	100	350	9	1	16	26	7	7	0	0	0	stim008_stimuli_original_animals_fish_4.png	J	0	0	0	239.59317040001	239.79317780002
55946.5	100	351	9	1	16	27	12	4	0	0	0	stim013_stimuli_original_vehicles_planes_1.png	E	0	0	0	239.993190600071	240.193193100044
56046.5	100	352	9	1	16	28	0	13	1	0	0	stim001_stimuli_original_animals_birds_1.png	U	0	0	0	240.393202800071	240.593201600015
56146.5	100	353	9	1	16	29	3	11	0	0	0	stim004_stimuli_original_animals_birds_4.png	R	f	240.985008500051	1	240.793215100071	240.993217800045
56246.5	100	354	9	1	16	30	0	5	1	0	0	stim001_stimuli_original_animals_birds_1.png	F	0	0	0	241.193225300056	241.393208699999
56346.5	100	355	9	1	16	31	14	8	0	0	0	stim015_stimuli_original_vehicles_planes_3.png	K	0	0	0	241.593229999999	241.79323499999
56446.5	100	356	9	1	16	32	6	15	0	0	0	stim007_stimuli_original_animals_fish_3.png	Y	0	0	0	241.99324630003	242.193246100098
56546.5	100	357	9	1	16	33	1	6	0	0	0	stim002_stimuli_original_animals_birds_2.png	G	0	0	0	242.393257900025	242.593256500084
56646.5	100	358	9	1	16	34	9	2	0	0	0	stim010_stimuli_original_vehicles_boats_2.png	C	0	0	0	242.793267100002	242.993268000078
56746.5	100	359	9	1	16	35	5	1	0	0	0	stim006_stimuli_original_animals_fish_2.png	B	0	0	0	243.19328170002	243.393277300056
57421.5	100	360	10	0	44	0	14	10	0	0	0	stim015_stimuli_original_vehicles_planes_3.png	Q	0	0	0	245.893332500011	246.093331900076
57521.5	100	361	10	0	44	1	4	6	0	0	0	stim005_stimuli_original_animals_fish_1.png	G	0	0	0	246.293339000084	246.493341500056
57621.5	100	362	10	0	44	2	3	8	0	0	0	stim004_stimuli_original_animals_birds_4.png	K	0	0	0	246.693350300076	246.893351000035
57721.5	100	363	10	0	44	3	9	12	0	0	0	stim010_stimuli_original_vehicles_boats_2.png	T	0	0	0	247.093358200043	247.293363300036
57821.5	100	364	10	0	44	4	10	2	0	0	0	stim011_stimuli_original_vehicles_boats_3.png	C	0	0	0	247.493385200039	247.693374000024
57921.5	100	365	10	0	44	5	5	0	0	0	0	stim006_stimuli_original_animals_fish_2.png	A	0	0	0	247.893385900068	248.093386000022
58021.5	100	366	10	0	44	6	2	1	0	0	0	stim003_stimuli_original_animals_birds_3.png	B	0	0	0	248.293396400055	248.493398500024
58121.5	100	367	10	0	44	7	12	3	0	0	0	stim013_stimuli_original_vehicles_planes_1.png	D	0	0	0	248.693406200036	248.893408100004
58221.5	100	368	10	0	44	8	6	15	0	0	0	stim007_stimuli_original_animals_fish_3.png	Y	0	0	0	249.093422100064	249.293417700101
58321.5	100	369	10	0	44	9	8	5	0	0	0	stim009_stimuli_original_vehicles_boats_1.png	F	0	0	0	249.493430200033	249.693486400065
58421.5	100	370	10	0	44	10	12	13	1	0	0	stim013_stimuli_original_vehicles_planes_1.png	U	0	0	0	249.89345209999	250.093452200061
58521.5	100	371	10	0	44	11	7	2	0	1	0	stim008_stimuli_original_animals_fish_4.png	C	f	250.286057400052	0	250.293468000018	250.49345300009
58621.5	100	372	10	0	44	12	12	14	1	0	1	stim013_stimuli_original_vehicles_planes_1.png	V	0	0	0	250.693463300006	250.893463000073
58721.5	100	373	10	0	44	13	11	2	0	1	0	stim012_stimuli_original_vehicles_boats_4.png	C	0	0	0	251.093475500005	251.293474300066
58821.5	100	374	10	0	44	14	0	9	0	0	0	stim001_stimuli_original_animals_birds_1.png	L	0	0	0	251.493486299994	251.693487500073
58921.5	100	375	10	0	44	15	13	11	0	0	0	stim014_stimuli_original_vehicles_planes_2.png	R	0	0	0	251.893495900091	252.09349670005
59021.5	100	376	10	0	44	16	1	4	0	0	0	stim002_stimuli_original_animals_birds_2.png	E	0	0	0	252.293535200064	252.493508000043
59121.5	100	377	10	0	44	17	15	7	0	0	0	stim016_stimuli_original_vehicles_planes_4.png	J	0	0	0	252.693519300083	252.893530200003
59221.5	100	378	10	0	44	18	7	15	0	0	0	stim008_stimuli_original_animals_fish_4.png	Y	0	0	0	253.09353120008	253.293537700083
59321.5	100	379	10	0	44	19	4	1	0	0	0	stim005_stimuli_original_animals_fish_1.png	B	0	0	0	253.493541700067	253.693542200024
59421.5	100	380	10	0	44	20	11	13	0	0	0	stim012_stimuli_original_vehicles_boats_4.png	U	0	0	0	253.893554400071	254.093554700026
59521.5	100	381	10	0	44	21	9	0	0	0	0	stim010_stimuli_original_vehicles_boats_2.png	A	0	0	0	254.293570600101	254.493565500015
59621.5	100	382	10	0	44	22	2	11	1	0	0	stim003_stimuli_original_animals_birds_3.png	R	0	0	0	254.693575300043	254.893588000094
59721.5	100	383	10	0	44	23	14	12	0	1	0	stim015_stimuli_original_vehicles_planes_3.png	T	0	0	0	255.093586000032	255.293591100024
59821.5	100	384	10	0	44	24	2	7	1	0	1	stim003_stimuli_original_animals_birds_3.png	J	0	0	0	255.493609600002	255.693601700012
59921.5	100	385	10	0	44	25	13	12	0	1	0	stim014_stimuli_original_vehicles_planes_2.png	T	0	0	0	255.893609600025	256.093608600087
60021.5	100	386	10	0	44	26	5	8	0	0	0	stim006_stimuli_original_animals_fish_2.png	K	0	0	0	256.293620600016	256.493618900073
60121.5	100	387	10	0	44	27	15	6	0	0	0	stim016_stimuli_original_vehicles_planes_4.png	G	0	0	0	256.693631500006	256.893632300082
60221.5	100	388	10	0	44	28	3	12	0	0	0	stim004_stimuli_original_animals_birds_4.png	T	0	0	0	257.093683400075	257.293643700075
60321.5	100	389	10	0	44	29	1	2	0	0	0	stim002_stimuli_original_animals_birds_2.png	C	0	0	0	257.493653699988	257.693652200047
60421.5	100	390	10	0	44	30	0	5	0	0	0	stim001_stimuli_original_animals_birds_1.png	F	0	0	0	257.893664200092	258.093677300029
60521.5	100	391	10	0	44	31	2	10	0	0	0	stim003_stimuli_original_animals_birds_3.png	Q	0	0	0	258.293676700094	258.49367570004
60621.5	100	392	10	0	44	32	12	9	0	0	0	stim013_stimuli_original_vehicles_planes_1.png	L	0	0	0	258.69368710008	258.893688100041
60721.75	100	393	10	0	44	33	8	3	0	0	0	stim009_stimuli_original_vehicles_boats_1.png	D	0	0	0	259.093700500089	259.293699500035
60821.75	100	394	10	0	44	34	6	4	0	0	0	stim007_stimuli_original_animals_fish_3.png	E	0	0	0	259.493709800066	259.693736799993
60921.75	100	395	10	0	44	35	10	14	0	0	0	stim011_stimuli_original_vehicles_boats_3.png	V	0	0	0	259.893720700056	260.093720600009
61863.25	100	396	11	1	10	0	3	13	0	0	0	stim004_stimuli_original_animals_birds_4.png	U	0	0	0	263.660496500088	263.860494500026
61963.25	100	397	11	1	10	1	8	6	0	0	0	stim009_stimuli_original_vehicles_boats_1.png	G	0	0	0	264.060505200061	264.260506500024
62063.25	100	398	11	1	10	2	7	9	0	0	0	stim008_stimuli_original_animals_fish_4.png	L	0	0	0	264.460517700063	264.660529099987
62163.25	100	399	11	1	10	3	1	1	0	0	0	stim002_stimuli_original_animals_birds_2.png	B	0	0	0	264.860531300073	265.06052639999
62263.25	100	400	11	1	10	4	11	14	0	0	0	stim012_stimuli_original_vehicles_boats_4.png	V	0	0	0	265.260544900084	265.460537700099
62363.25	100	401	11	1	10	5	14	4	0	0	0	stim015_stimuli_original_vehicles_planes_3.png	E	0	0	0	265.660550900036	265.860550799989
62463.25	100	402	11	1	10	6	15	0	0	0	0	stim016_stimuli_original_vehicles_planes_4.png	A	0	0	0	266.060559900012	266.260561300092
62563.25	100	403	11	1	10	7	10	5	0	0	0	stim011_stimuli_original_vehicles_boats_3.png	F	0	0	0	266.460571100004	266.660572600085
62663.25	100	404	11	1	10	8	12	1	0	1	0	stim013_stimuli_original_vehicles_planes_1.png	B	0	0	0	266.860622900072	267.06058420008
62763.25	100	405	11	1	10	9	9	15	0	0	0	stim010_stimuli_original_vehicles_boats_2.png	Y	0	0	0	267.2605929001	267.46059380006
62863.25	100	406	11	1	10	10	14	1	1	1	1	stim015_stimuli_original_vehicles_planes_3.png	B	0	0	0	267.660606099991	267.860605300055
62963.25	100	407	11	1	10	11	6	3	0	0	0	stim007_stimuli_original_animals_fish_3.png	D	0	0	0	268.060620300006	268.260617100052
63063.25	100	408	11	1	10	12	14	10	1	0	0	stim015_stimuli_original_vehicles_planes_3.png	Q	0	0	0	268.46062700008	268.660628700047
63163.25	100	409	11	1	10	13	13	2	0	0	0	stim014_stimuli_original_vehicles_planes_2.png	C	0	0	0	268.860640000086	269.060638500028
63263.25	100	410	11	1	10	14	0	8	0	0	0	stim001_stimuli_original_animals_birds_1.png	K	0	0	0	269.260651100078	269.460678000003
63363.25	100	411	11	1	10	15	2	12	0	0	0	stim003_stimuli_original_animals_birds_3.png	T	0	0	0	269.660660100053	269.860661600018
63463.25	100	412	11	1	10	16	5	11	0	0	0	stim006_stimuli_original_animals_fish_2.png	R	0	0	0	270.060686200042	270.260672400007
63563.25	100	413	11	1	10	17	4	7	0	0	0	stim005_stimuli_original_animals_fish_1.png	J	0	0	0	270.460684900056	270.660684000002
63663.25	100	414	11	1	10	18	7	4	0	0	0	stim008_stimuli_original_animals_fish_4.png	E	0	0	0	270.860697400058	271.060699000023
63763.25	100	415	11	1	10	19	11	5	0	0	0	stim012_stimuli_original_vehicles_boats_4.png	F	0	0	0	271.260709400056	271.460705100093
63863.25	100	416	11	1	10	20	12	2	0	0	0	stim013_stimuli_original_vehicles_planes_1.png	C	0	0	0	271.660718300031	271.860717200092
63963.5	100	417	11	1	10	21	8	0	0	0	0	stim009_stimuli_original_vehicles_boats_1.png	A	0	0	0	272.060741299996	272.260728300083
64063.5	100	418	11	1	10	22	2	13	0	0	0	stim003_stimuli_original_animals_birds_3.png	U	0	0	0	272.460740500013	272.660743799992
64163.5	100	419	11	1	10	23	10	14	0	1	0	stim011_stimuli_original_vehicles_boats_3.png	V	0	0	0	272.860750599997	273.060750400065
64263.5	100	420	11	1	10	24	3	6	0	0	0	stim004_stimuli_original_animals_birds_4.png	G	0	0	0	273.260762799997	273.460762700066
64363.5	100	421	11	1	10	25	1	14	1	1	1	stim002_stimuli_original_animals_birds_2.png	V	0	0	0	273.66077409999	273.860773500055
64463.5	100	422	11	1	10	26	15	9	0	0	0	stim016_stimuli_original_vehicles_planes_4.png	L	0	0	0	274.060786999995	274.260805500089
64563.5	100	423	11	1	10	27	1	12	1	0	0	stim002_stimuli_original_animals_birds_2.png	T	0	0	0	274.460794700077	274.660806700005
64663.5	100	424	11	1	10	28	5	10	0	0	0	stim006_stimuli_original_animals_fish_2.png	Q	0	0	0	274.86080870009	275.060811100062
64763.5	100	425	11	1	10	29	0	15	0	0	0	stim001_stimuli_original_animals_birds_1.png	Y	0	0	0	275.260824700003	275.460823300062
64863.5	100	426	11	1	10	30	4	14	0	0	0	stim005_stimuli_original_animals_fish_1.png	V	0	0	0	275.660831900081	275.86083000002
64963.5	100	427	11	1	10	31	14	11	0	0	0	stim015_stimuli_original_vehicles_planes_3.png	R	0	0	0	276.060841900064	276.260841100011
65063.5	100	428	11	1	10	32	1	1	0	0	0	stim002_stimuli_original_animals_birds_2.png	B	0	0	0	276.460851600044	276.660852000001
65163.5	100	429	11	1	10	33	9	7	0	0	0	stim010_stimuli_original_vehicles_boats_2.png	J	0	0	0	276.860863600043	277.060862699989
65263.5	100	430	11	1	10	34	6	8	0	0	0	stim007_stimuli_original_animals_fish_3.png	K	0	0	0	277.260896400083	277.460874399985
65363.5	100	431	11	1	10	35	13	3	0	0	0	stim014_stimuli_original_vehicles_planes_2.png	D	0	0	0	277.660885900026	277.860906000016
65971.75	100	432	12	0	28	0	15	0	0	0	0	stim016_stimuli_original_vehicles_planes_4.png	A	0	0	0	280.094316100003	280.294313800056
66071.75	100	433	12	0	28	1	2	7	0	0	0	stim003_stimuli_original_animals_birds_3.png	J	0	0	0	280.494324900093	280.694327500067
66171.75	100	434	12	0	28	2	9	8	0	0	0	stim010_stimuli_original_vehicles_boats_2.png	K	0	0	0	280.894336900092	281.094336000038
66271.75	100	435	12	0	28	3	10	4	0	0	0	stim011_stimuli_original_vehicles_boats_3.png	E	0	0	0	281.29435370001	281.494345500018
66371.75	100	436	12	0	28	4	8	1	0	0	0	stim009_stimuli_original_vehicles_boats_1.png	B	0	0	0	281.694359400077	281.894360500039
66471.75	100	437	12	0	28	5	6	10	1	0	0	stim007_stimuli_original_animals_fish_3.png	Q	0	0	0	282.094371200074	282.294374100049
66571.75	100	438	12	0	28	6	11	11	0	0	0	stim012_stimuli_original_vehicles_boats_4.png	R	0	0	0	282.494379800046	282.694371000049
66671.75	100	439	12	0	28	7	6	0	1	1	1	stim007_stimuli_original_animals_fish_3.png	A	0	0	0	282.894391600043	283.0943921
66771.75	100	440	12	0	28	8	1	9	0	0	0	stim002_stimuli_original_animals_birds_2.png	L	0	0	0	283.294404100045	283.494401900098
66871.75	100	441	12	0	28	9	14	0	0	1	0	stim015_stimuli_original_vehicles_planes_3.png	A	0	0	0	283.694414300029	283.894417500007
66971.75	100	442	12	0	28	10	12	3	0	0	0	stim013_stimuli_original_vehicles_planes_1.png	D	0	0	0	284.094423500006	284.294424200081
67071.75	100	443	12	0	28	11	13	14	0	0	0	stim014_stimuli_original_vehicles_planes_2.png	V	0	0	0	284.494439000031	284.694434100064
67171.75	100	444	12	0	28	12	7	13	0	0	0	stim008_stimuli_original_animals_fish_4.png	U	0	0	0	284.894447500003	285.094446300063
67271.75	100	445	12	0	28	13	5	6	0	0	0	stim006_stimuli_original_animals_fish_2.png	G	0	0	0	285.294452600065	285.494459600071
67371.75	100	446	12	0	28	14	6	2	0	0	0	stim007_stimuli_original_animals_fish_3.png	C	0	0	0	285.694474400021	285.894458600087
67471.75	100	447	12	0	28	15	4	12	0	0	0	stim005_stimuli_original_animals_fish_1.png	T	0	0	0	286.094486000016	286.294480900047
67571.75	100	448	12	0	28	16	0	5	0	0	0	stim001_stimuli_original_animals_birds_1.png	F	0	0	0	286.494491900085	286.694499300094
67671.75	100	449	12	0	28	17	3	15	0	0	0	stim004_stimuli_original_animals_birds_4.png	Y	0	0	0	286.894507699995	287.094502700027
67771.75	100	450	12	0	28	18	15	3	0	0	0	stim016_stimuli_original_vehicles_planes_4.png	D	0	0	0	287.294541200041	287.494518800057
67871.75	100	451	12	0	28	19	5	0	0	0	0	stim006_stimuli_original_animals_fish_2.png	A	0	0	0	287.694530799985	287.894512700033
67971.75	100	452	12	0	28	20	12	4	0	0	0	stim013_stimuli_original_vehicles_planes_1.png	E	0	0	0	288.094514099997	288.294512800057
68071.75	100	453	12	0	28	21	2	6	0	0	0	stim003_stimuli_original_animals_birds_3.png	G	0	0	0	288.494522000081	288.694523400045
68171.75	100	454	12	0	28	22	6	5	0	0	0	stim007_stimuli_original_animals_fish_3.png	F	0	0	0	288.894532600068	289.094534100033
68271.75	100	455	12	0	28	23	13	7	0	0	0	stim014_stimuli_original_vehicles_planes_2.png	J	0	0	0	289.29454640008	289.494545300025
68371.75	100	456	12	0	28	24	14	13	0	0	0	stim015_stimuli_original_vehicles_planes_3.png	U	0	0	0	289.694557800074	289.894555600011
68471.75	100	457	12	0	28	25	3	12	0	0	0	stim004_stimuli_original_animals_birds_4.png	T	0	0	0	290.094568300061	290.294566099998
68571.75	100	458	12	0	28	26	0	14	1	0	0	stim001_stimuli_original_animals_birds_1.png	V	0	0	0	290.494580100058	290.6945787
68671.75	100	459	12	0	28	27	9	1	0	0	0	stim010_stimuli_original_vehicles_boats_2.png	B	0	0	0	290.894590500044	291.094590099994
68771.75	100	460	12	0	28	28	0	6	1	1	1	stim001_stimuli_original_animals_birds_1.png	G	0	0	0	291.294601600035	291.494600600097
68871.75	100	461	12	0	28	29	11	11	0	0	0	stim012_stimuli_original_vehicles_boats_4.png	R	f	291.687130000093	1	291.694611100014	291.894612700096
68971.75	100	462	12	0	28	30	10	6	0	1	0	stim011_stimuli_original_vehicles_boats_3.png	G	0	0	0	292.094624000019	292.294624400092
69071.75	100	463	12	0	28	31	1	8	0	0	0	stim002_stimuli_original_animals_birds_2.png	K	0	0	0	292.494634900009	292.694637100096
69171.75	100	464	12	0	28	32	4	10	0	0	0	stim005_stimuli_original_animals_fish_1.png	Q	0	0	0	292.894645699998	293.094645500067
69271.75	100	465	12	0	28	33	8	9	0	0	0	stim009_stimuli_original_vehicles_boats_1.png	L	0	0	0	293.294657899998	293.49465690006
69371.75	100	466	12	0	28	34	7	2	0	0	0	stim008_stimuli_original_animals_fish_4.png	C	0	0	0	293.694673800026	293.894670500071
69471.75	100	467	12	0	28	35	0	15	0	0	0	stim001_stimuli_original_animals_birds_1.png	Y	0	0	0	294.0946804001	294.294681900064
70571.75	100	468	13	1	20	0	8	4	0	0	0	stim009_stimuli_original_vehicles_boats_1.png	E	0	0	0	298.494804000016	298.694802800077
70671.75	100	469	13	1	20	1	12	10	0	0	0	stim013_stimuli_original_vehicles_planes_1.png	Q	0	0	0	298.894814300002	299.094814900076
70771.75	100	470	13	1	20	2	0	3	0	0	0	stim001_stimuli_original_animals_birds_1.png	D	0	0	0	299.294827100006	299.494827200077
70872	100	471	13	1	20	3	14	15	0	0	0	stim015_stimuli_original_vehicles_planes_3.png	Y	0	0	0	299.694835300092	299.894836200052
70972	100	472	13	1	20	4	9	12	0	0	0	stim010_stimuli_original_vehicles_boats_2.png	T	0	0	0	300.094848000095	300.29485080007
71072	100	473	13	1	20	5	0	11	1	0	0	stim001_stimuli_original_animals_birds_1.png	R	0	0	0	300.494859100087	300.694859300042
71172	100	474	13	1	20	6	1	9	0	0	0	stim002_stimuli_original_animals_birds_2.png	L	0	0	0	300.894870900083	301.094871100038
71272	100	475	13	1	20	7	0	2	1	0	0	stim001_stimuli_original_animals_birds_1.png	C	0	0	0	301.294882500079	301.494881500024
71372	100	476	13	1	20	8	7	6	0	0	0	stim008_stimuli_original_animals_fish_4.png	G	0	0	0	301.694893500069	301.894892800017
71472	100	477	13	1	20	9	3	7	0	0	0	stim004_stimuli_original_animals_birds_4.png	J	0	0	0	302.094905200065	302.294903500006
71572	100	478	13	1	20	10	13	8	0	1	0	stim014_stimuli_original_vehicles_planes_2.png	K	0	0	0	302.494914500043	302.694915800006
71672	100	479	13	1	20	11	11	14	0	0	0	stim012_stimuli_original_vehicles_boats_4.png	V	0	0	0	302.894925300032	303.09492990002
71772	100	480	13	1	20	12	10	8	0	1	1	stim011_stimuli_original_vehicles_boats_3.png	K	0	0	0	303.294938700041	303.494937599986
71872	100	481	13	1	20	13	5	13	0	0	0	stim006_stimuli_original_animals_fish_2.png	U	0	0	0	303.694948900025	303.894948100089
71972	100	482	13	1	20	14	6	1	0	0	0	stim007_stimuli_original_animals_fish_3.png	B	0	0	0	304.094960600021	304.294961999985
72072	100	483	13	1	20	15	2	0	0	0	0	stim003_stimuli_original_animals_birds_3.png	A	0	0	0	304.494972100016	304.694969300064
72172	100	484	13	1	20	16	15	5	0	0	0	stim016_stimuli_original_vehicles_planes_4.png	F	0	0	0	304.894981799996	305.094982100069
72272	100	485	13	1	20	17	4	8	0	0	0	stim005_stimuli_original_animals_fish_1.png	K	0	0	0	305.29499319999	305.495011900086
72372	100	486	13	1	20	18	8	4	0	0	0	stim009_stimuli_original_vehicles_boats_1.png	E	0	0	0	305.6950046001	305.895004200051
72472	100	487	13	1	20	19	5	15	0	0	0	stim006_stimuli_original_animals_fish_2.png	Y	0	0	0	306.095018199994	306.295022200095
72572	100	488	13	1	20	20	0	2	0	0	0	stim001_stimuli_original_animals_birds_1.png	C	0	0	0	306.495027200086	306.695027700043
72672	100	489	13	1	20	21	1	6	0	0	0	stim002_stimuli_original_animals_birds_2.png	G	0	0	0	306.895037700073	307.095042500063
72772	100	490	13	1	20	22	13	5	0	0	0	stim014_stimuli_original_vehicles_planes_2.png	F	0	0	0	307.295050100074	307.495049700025
72872	100	491	13	1	20	23	8	10	1	0	0	stim009_stimuli_original_vehicles_boats_1.png	Q	0	0	0	307.695060300059	307.89506400004
72972	100	492	13	1	20	24	14	11	0	0	0	stim015_stimuli_original_vehicles_planes_3.png	R	0	0	0	308.095072300057	308.295073300018
73072	100	493	13	1	20	25	8	13	1	0	0	stim009_stimuli_original_vehicles_boats_1.png	U	0	0	0	308.495082500041	308.695082799997
73172	100	494	13	1	20	26	7	3	0	0	0	stim008_stimuli_original_animals_fish_4.png	D	0	0	0	308.895094300038	309.095098400023
73272	100	495	13	1	20	27	6	7	0	0	0	stim007_stimuli_original_animals_fish_3.png	J	0	0	0	309.295105800033	309.495108500007
73372	100	496	13	1	20	28	2	0	0	1	0	stim003_stimuli_original_animals_birds_3.png	A	0	0	0	309.6951269001	309.895116800093
73472	100	497	13	1	20	29	9	1	0	0	0	stim010_stimuli_original_vehicles_boats_2.png	B	0	0	0	310.095129200025	310.295128100086
73572	100	498	13	1	20	30	11	0	0	1	1	stim012_stimuli_original_vehicles_boats_4.png	A	0	0	0	310.495138900005	310.695139800082
73672	100	499	13	1	20	31	12	9	0	0	0	stim013_stimuli_original_vehicles_planes_1.png	L	0	0	0	310.895149399992	311.095152600086
73772	100	500	13	1	20	32	15	14	0	0	0	stim016_stimuli_original_vehicles_planes_4.png	V	f	311.2876996001	1	311.295161799993	311.495161900064
73872	100	501	13	1	20	33	3	0	0	0	0	stim004_stimuli_original_animals_birds_4.png	A	0	0	0	311.695172100095	311.895173200057
73972	100	502	13	1	20	34	10	12	0	0	0	stim011_stimuli_original_vehicles_boats_3.png	T	0	0	0	312.095185699989	312.295185500057
74072	100	503	13	1	20	35	4	8	0	0	0	stim005_stimuli_original_animals_fish_1.png	K	0	0	0	312.495196800097	312.695195800043
74701.25	100	504	14	0	36	0	5	11	0	0	0	stim006_stimuli_original_animals_fish_2.png	R	0	0	0	315.011962900055	315.211945899995
74801.25	100	505	14	0	36	1	13	6	0	0	0	stim014_stimuli_original_vehicles_planes_2.png	G	0	0	0	315.41197320004	315.611970800092
74901.25	100	506	14	0	36	2	12	15	0	0	0	stim013_stimuli_original_vehicles_planes_1.png	Y	0	0	0	315.811980400002	316.011966400081
75001.25	100	507	14	0	36	3	8	10	0	0	0	stim009_stimuli_original_vehicles_boats_1.png	Q	0	0	0	316.211993800011	316.412001400022
75101.25	100	508	14	0	36	4	7	9	0	0	0	stim008_stimuli_original_animals_fish_4.png	L	0	0	0	316.612002400099	316.812002600054
75201.25	100	509	14	0	36	5	9	1	0	0	0	stim010_stimuli_original_vehicles_boats_2.png	B	0	0	0	317.012001700001	317.212012700038
75301.25	100	510	14	0	36	6	8	8	1	0	0	stim009_stimuli_original_vehicles_boats_1.png	K	0	0	0	317.412031200016	317.612026000046
75401.25	100	511	14	0	36	7	3	2	0	0	0	stim004_stimuli_original_animals_birds_4.png	C	0	0	0	317.812037700089	318.012041500071
75501.25	100	512	14	0	36	8	8	3	1	0	1	stim009_stimuli_original_vehicles_boats_1.png	D	0	0	0	318.212054200005	318.41203830007
75601.25	100	513	14	0	36	9	11	7	0	0	0	stim012_stimuli_original_vehicles_boats_4.png	J	f	318.604601300089	1	318.612035400001	318.812050200067
75701.25	100	514	14	0	36	10	4	14	0	0	0	stim005_stimuli_original_animals_fish_1.png	V	0	0	0	319.01206400001	319.212080400088
75801.25	100	515	14	0	36	11	1	2	0	1	0	stim002_stimuli_original_animals_birds_2.png	C	0	0	0	319.412106000003	319.612079599989
75901.25	100	516	14	0	36	12	0	4	0	0	0	stim001_stimuli_original_animals_birds_1.png	E	0	0	0	319.81208110007	320.012077099993
76001.25	100	517	14	0	36	13	15	2	0	1	0	stim016_stimuli_original_vehicles_planes_4.png	C	0	0	0	320.212091600057	320.4120881001
76101.25	100	518	14	0	36	14	10	12	0	0	0	stim011_stimuli_original_vehicles_boats_3.png	T	0	0	0	320.612101000035	320.812101499992
76201.25	100	519	14	0	36	15	2	13	0	0	0	stim003_stimuli_original_animals_birds_3.png	U	0	0	0	321.012115700054	321.212138300063
76301.25	100	520	14	0	36	16	6	0	0	0	0	stim007_stimuli_original_animals_fish_3.png	A	0	0	0	321.412123100017	321.612126399996
76401.25	100	521	14	0	36	17	14	5	0	0	0	stim015_stimuli_original_vehicles_planes_3.png	F	0	0	0	321.81215750007	322.012133300072
76501.25	100	522	14	0	36	18	5	14	0	0	0	stim006_stimuli_original_animals_fish_2.png	V	0	0	0	322.212147600017	322.412144400063
76601.25	100	523	14	0	36	19	0	6	0	0	0	stim001_stimuli_original_animals_birds_1.png	G	0	0	0	322.612155300099	322.812158400076
76701.25	100	524	14	0	36	20	13	2	0	0	0	stim014_stimuli_original_vehicles_planes_2.png	C	0	0	0	323.012167500099	323.212169400067
76801.25	100	525	14	0	36	21	12	10	0	0	0	stim013_stimuli_original_vehicles_planes_1.png	Q	0	0	0	323.412180099986	323.612183500081
76901.25	100	526	14	0	36	22	2	15	1	0	0	stim003_stimuli_original_animals_birds_3.png	Y	0	0	0	323.812212900026	324.012190100038
77001.25	100	527	14	0	36	23	4	0	0	0	0	stim005_stimuli_original_animals_fish_1.png	A	0	0	0	324.212202600087	324.412205700064
77101.25	100	528	14	0	36	24	2	1	1	0	1	stim003_stimuli_original_animals_birds_3.png	B	0	0	0	324.612212700071	324.812211000011
77201.25	100	529	14	0	36	25	14	4	0	0	0	stim015_stimuli_original_vehicles_planes_3.png	E	0	0	0	325.012223000056	325.212224500021
77301.25	100	530	14	0	36	26	7	11	0	0	0	stim008_stimuli_original_animals_fish_4.png	R	0	0	0	325.412235900061	325.612233199994
77401.25	100	531	14	0	36	27	3	8	0	1	0	stim004_stimuli_original_animals_birds_4.png	K	0	0	0	325.812248200062	326.012240900076
77501.25	100	532	14	0	36	28	2	3	0	0	0	stim003_stimuli_original_animals_birds_3.png	D	0	0	0	326.212257000036	326.412270800094
77601.25	100	533	14	0	36	29	8	8	0	1	0	stim009_stimuli_original_vehicles_boats_1.png	K	0	0	0	326.612269900041	326.812269699993
77701.25	100	534	14	0	36	30	1	9	0	0	0	stim002_stimuli_original_animals_birds_2.png	L	0	0	0	327.012279000017	327.212279500091
77801.25	100	535	14	0	36	31	9	7	0	0	0	stim010_stimuli_original_vehicles_boats_2.png	J	0	0	0	327.412291500019	327.612290000077
77901.25	100	536	14	0	36	32	10	8	0	0	0	stim011_stimuli_original_vehicles_boats_3.png	K	0	0	0	327.812300999998	328.012305499986
78001.25	100	537	14	0	36	33	15	12	0	0	0	stim016_stimuli_original_vehicles_planes_4.png	T	0	0	0	328.212312899996	328.412313800072
78101.25	100	538	14	0	36	34	6	13	0	0	0	stim007_stimuli_original_animals_fish_3.png	U	0	0	0	328.612348200055	328.812323300052
78201.25	100	539	14	0	36	35	11	5	0	0	0	stim012_stimuli_original_vehicles_boats_4.png	F	0	0	0	329.012337599997	329.212353000068
78930.5	100	540	15	1	33	0	11	2	0	0	0	stim012_stimuli_original_vehicles_boats_4.png	C	0	0	0	331.929110900033	332.129088300047
79030.5	100	541	15	1	33	1	2	8	0	0	0	stim003_stimuli_original_animals_birds_3.png	K	0	0	0	332.329113800079	332.529114000034
79130.5	100	542	15	1	33	2	8	3	0	0	0	stim009_stimuli_original_vehicles_boats_1.png	D	0	0	0	332.729099299992	332.929125500028
79230.5	100	543	15	1	33	3	7	5	0	0	0	stim008_stimuli_original_animals_fish_4.png	F	0	0	0	333.129145200015	333.329139900045
79330.5	100	544	15	1	33	4	6	13	0	0	0	stim007_stimuli_original_animals_fish_3.png	U	0	0	0	333.529148200061	333.729133200017
79430.5	100	545	15	1	33	5	15	4	0	0	0	stim016_stimuli_original_vehicles_planes_4.png	E	0	0	0	333.92915900005	334.12915980001
79530.5	100	546	15	1	33	6	10	10	0	0	0	stim011_stimuli_original_vehicles_boats_3.png	Q	0	0	0	334.329171300051	334.529175400035
79630.5	100	547	15	1	33	7	1	14	0	0	0	stim002_stimuli_original_animals_birds_2.png	V	0	0	0	334.729163800017	334.929179000086
79730.5	100	548	15	1	33	8	9	9	0	0	0	stim010_stimuli_original_vehicles_boats_2.png	L	0	0	0	335.129193700035	335.329173700069
79830.5	100	549	15	1	33	9	0	6	0	0	0	stim001_stimuli_original_animals_birds_1.png	G	0	0	0	335.529200799996	335.729186900076
79930.5	100	550	15	1	33	10	1	12	1	0	0	stim002_stimuli_original_animals_birds_2.png	T	0	0	0	335.929215300013	336.129214200075
80030.5	100	551	15	1	33	11	13	11	0	0	0	stim014_stimuli_original_vehicles_planes_2.png	R	0	0	0	336.329224299989	336.529227500083
80130.5	100	552	15	1	33	12	1	10	1	1	0	stim002_stimuli_original_animals_birds_2.png	Q	0	0	0	336.729233900085	336.929218600038
80230.5	100	553	15	1	33	13	12	1	0	0	0	stim013_stimuli_original_vehicles_planes_1.png	B	0	0	0	337.129245700082	337.32924500003
80330.5	100	554	15	1	33	14	3	10	0	1	1	stim004_stimuli_original_animals_birds_4.png	Q	0	0	0	337.529258200084	337.729243100039
80430.5	100	555	15	1	33	15	4	15	0	0	0	stim005_stimuli_original_animals_fish_1.png	Y	f	337.921790800057	1	337.929269400076	338.129269200028
80530.5	100	556	15	1	33	16	5	7	0	0	0	stim006_stimuli_original_animals_fish_2.png	J	0	0	0	338.329278600053	338.529264000012
80630.5	100	557	15	1	33	17	14	0	0	0	0	stim015_stimuli_original_vehicles_planes_3.png	A	0	0	0	338.72929170006	338.929292100016
80730.5	100	558	15	1	33	18	0	14	0	0	0	stim001_stimuli_original_animals_birds_1.png	V	0	0	0	339.129305200069	339.329301899998
80830.5	100	559	15	1	33	19	7	5	0	0	0	stim008_stimuli_original_animals_fish_4.png	F	0	0	0	339.52931490005	339.729310600087
80930.5	100	560	15	1	33	20	15	4	0	0	0	stim016_stimuli_original_vehicles_planes_4.png	E	0	0	0	339.929325500038	340.129323000088
81030.5	100	561	15	1	33	21	10	3	1	0	0	stim011_stimuli_original_vehicles_boats_3.png	D	0	0	0	340.329338900046	340.5293367001
81130.5	100	562	15	1	33	22	1	12	0	0	0	stim002_stimuli_original_animals_birds_2.png	T	0	0	0	340.729348900029	340.929344900069
81230.5	100	563	15	1	33	23	10	1	1	1	0	stim011_stimuli_original_vehicles_boats_3.png	B	0	0	0	341.129362700041	341.329356700066
81330.5	100	564	15	1	33	24	11	13	0	0	0	stim012_stimuli_original_vehicles_boats_4.png	U	0	0	0	341.529371200013	341.729369100067
81430.5	100	565	15	1	33	25	12	1	0	1	1	stim013_stimuli_original_vehicles_planes_1.png	B	0	0	0	341.929383300012	342.129379500053
81530.5	100	566	15	1	33	26	6	0	0	0	0	stim007_stimuli_original_animals_fish_3.png	A	f	342.521178900031	1	342.329391600098	342.529390900047
81630.5	100	567	15	1	33	27	9	9	0	0	0	stim010_stimuli_original_vehicles_boats_2.png	L	0	0	0	342.7293756	342.929378100089
81730.5	100	568	15	1	33	28	14	1	0	0	0	stim015_stimuli_original_vehicles_planes_3.png	B	0	0	0	343.129408000037	343.329385400051
81830.5	100	569	15	1	33	29	10	10	0	0	0	stim011_stimuli_original_vehicles_boats_3.png	Q	0	0	0	343.529403800028	343.729395100032
81930.5	100	570	15	1	33	30	4	15	0	0	0	stim005_stimuli_original_animals_fish_1.png	Y	0	0	0	343.929406700074	344.129413900082
82030.5	100	571	15	1	33	31	13	6	0	0	0	stim014_stimuli_original_vehicles_planes_2.png	G	0	0	0	344.329418800073	344.529418400023
82130.5	100	572	15	1	33	32	5	7	0	0	0	stim006_stimuli_original_animals_fish_2.png	J	0	0	0	344.729430100066	344.929430300021
82230.5	100	573	15	1	33	33	3	8	0	0	0	stim004_stimuli_original_animals_birds_4.png	K	0	0	0	345.129441800062	345.329439900001
82330.5	100	574	15	1	33	34	8	2	0	0	0	stim009_stimuli_original_vehicles_boats_1.png	C	0	0	0	345.529453300056	345.729478400084
82430.5	100	575	15	1	33	35	2	11	0	0	0	stim003_stimuli_original_animals_birds_3.png	R	0	0	0	345.929463900044	346.129464500002
83072.25	100	576	16	0	18	0	2	7	0	0	0	stim003_stimuli_original_animals_birds_3.png	J	0	0	0	348.496206000098	348.696204200038
83172.25	100	577	16	0	18	1	3	15	0	0	0	stim004_stimuli_original_animals_birds_4.png	Y	0	0	0	348.896215500077	349.096216600039
83272.25	100	578	16	0	18	2	9	6	0	0	0	stim010_stimuli_original_vehicles_boats_2.png	G	0	0	0	349.296227800078	349.496227000025
83372.25	100	579	16	0	18	3	14	4	0	0	0	stim015_stimuli_original_vehicles_planes_3.png	E	0	0	0	349.69623770006	349.89623730001
83472.25	100	580	16	0	18	4	8	13	0	0	0	stim009_stimuli_original_vehicles_boats_1.png	U	0	0	0	350.096249500057	350.296250200015
83572.25	100	581	16	0	18	5	6	12	0	0	0	stim007_stimuli_original_animals_fish_3.png	T	0	0	0	350.496261900058	350.696258599986
83672.25	100	582	16	0	18	6	11	14	0	0	0	stim012_stimuli_original_vehicles_boats_4.png	V	0	0	0	350.896272400045	351.096270699985
83772.25	100	583	16	0	18	7	0	9	0	0	0	stim001_stimuli_original_animals_birds_1.png	L	f	351.288814600091	0	351.296282000025	351.496282600099
83872.25	100	584	16	0	18	8	5	11	0	0	0	stim006_stimuli_original_animals_fish_2.png	R	0	0	0	351.696295400034	351.896294200094
83972.25	100	585	16	0	18	9	11	0	1	0	0	stim012_stimuli_original_vehicles_boats_4.png	A	0	0	0	352.096304900013	352.296307299985
84072.25	100	586	16	0	18	10	12	8	0	0	0	stim013_stimuli_original_vehicles_planes_1.png	K	0	0	0	352.496316600009	352.696315700072
84172.25	100	587	16	0	18	11	11	15	1	1	1	stim012_stimuli_original_vehicles_boats_4.png	Y	0	0	0	352.896329600015	353.096325400053
84272.25	100	588	16	0	18	12	10	10	0	0	0	stim011_stimuli_original_vehicles_boats_3.png	Q	f	353.288877499988	1	353.296339599998	353.496342200087
84372.25	100	589	16	0	18	13	1	15	0	1	0	stim002_stimuli_original_animals_birds_2.png	Y	0	0	0	353.696351099992	353.896348700044
84472.25	100	590	16	0	18	14	7	5	0	0	0	stim008_stimuli_original_animals_fish_4.png	F	0	0	0	354.09636299999	354.296360900044
84572.25	100	591	16	0	18	15	4	3	0	0	0	stim005_stimuli_original_animals_fish_1.png	D	0	0	0	354.496373200091	354.696397899999
84672.25	100	592	16	0	18	16	13	1	0	0	0	stim014_stimuli_original_vehicles_planes_2.png	B	0	0	0	354.896382000064	355.096382100019
84772.25	100	593	16	0	18	17	15	2	0	0	0	stim016_stimuli_original_vehicles_planes_4.png	C	0	0	0	355.29639370006	355.496393400012
84872.25	100	594	16	0	18	18	2	15	0	0	0	stim003_stimuli_original_animals_birds_3.png	Y	0	0	0	355.696403800044	355.896405200008
84972.25	100	595	16	0	18	19	1	13	0	0	0	stim002_stimuli_original_animals_birds_2.png	U	0	0	0	356.096417600056	356.296417800011
85072.25	100	596	16	0	18	20	3	4	0	0	0	stim004_stimuli_original_animals_birds_4.png	E	0	0	0	356.496428100043	356.696428099996
85172.25	100	597	16	0	18	21	5	7	0	0	0	stim006_stimuli_original_animals_fish_2.png	J	0	0	0	356.89644000004	357.096440199995
85272.25	100	598	16	0	18	22	15	1	1	0	0	stim016_stimuli_original_vehicles_planes_4.png	B	0	0	0	357.296451900038	357.496451299987
85372.25	100	599	16	0	18	23	10	10	0	0	0	stim011_stimuli_original_vehicles_boats_3.png	Q	0	0	0	357.696459700004	357.896460600081
85472.25	100	600	16	0	18	24	15	11	1	1	1	stim016_stimuli_original_vehicles_planes_4.png	R	0	0	0	358.096472800011	358.296472100075
85572.25	100	601	16	0	18	25	8	12	0	0	0	stim009_stimuli_original_vehicles_boats_1.png	T	0	0	0	358.496485800017	358.696486100089
85672.25	100	602	16	0	18	26	0	11	0	1	0	stim001_stimuli_original_animals_birds_1.png	R	f	358.889029200072	1	358.896498000016	359.096496000071
85772.25	100	603	16	0	18	27	11	5	0	0	0	stim012_stimuli_original_vehicles_boats_4.png	F	0	0	0	359.296506999992	359.496530700009
85872.25	100	604	16	0	18	28	9	0	0	0	0	stim010_stimuli_original_vehicles_boats_2.png	A	0	0	0	359.696521900012	359.896515600034
85972.25	100	605	16	0	18	29	14	11	0	0	0	stim015_stimuli_original_vehicles_planes_3.png	R	0	0	0	360.096528800088	360.296530100051
86072.25	100	606	16	0	18	30	12	6	0	0	0	stim013_stimuli_original_vehicles_planes_1.png	G	0	0	0	360.496541900095	360.696538500022
86172.25	100	607	16	0	18	31	13	8	0	0	0	stim014_stimuli_original_vehicles_planes_2.png	K	0	0	0	360.896565900068	361.096551900031
86272.25	100	608	16	0	18	32	4	14	0	0	0	stim005_stimuli_original_animals_fish_1.png	V	0	0	0	361.296562100062	361.496564500034
86372.25	100	609	16	0	18	33	6	9	0	0	0	stim007_stimuli_original_animals_fish_3.png	L	0	0	0	361.696573800058	361.896572600002
86472.25	100	610	16	0	18	34	15	3	0	0	0	stim016_stimuli_original_vehicles_planes_4.png	D	0	0	0	362.096586200059	362.296585900011
86572.25	100	611	16	0	18	35	7	2	0	0	0	stim008_stimuli_original_animals_fish_4.png	C	0	0	0	362.496598400059	362.696596199996
87147.25	100	612	17	1	23	0	11	8	0	0	0	stim012_stimuli_original_vehicles_boats_4.png	K	0	0	0	364.796693600016	364.996688800049
87247.25	100	613	17	1	23	1	15	4	0	0	0	stim016_stimuli_original_vehicles_planes_4.png	E	0	0	0	365.196669200086	365.396675000084
87347.25	100	614	17	1	23	2	4	12	0	0	0	stim005_stimuli_original_animals_fish_1.png	T	0	0	0	365.596685199998	365.796685600071
87447.25	100	615	17	1	23	3	9	14	0	0	0	stim010_stimuli_original_vehicles_boats_2.png	V	0	0	0	365.99669290008	366.196693300037
87547.25	100	616	17	1	23	4	7	10	0	0	0	stim008_stimuli_original_animals_fish_4.png	Q	0	0	0	366.396705600084	366.596704800031
87647.25	100	617	17	1	23	5	6	13	0	0	0	stim007_stimuli_original_animals_fish_3.png	U	0	0	0	366.796717400081	366.996720400057
87747.25	100	618	17	1	23	6	14	2	0	0	0	stim015_stimuli_original_vehicles_planes_3.png	C	0	0	0	367.196728800074	367.396730900044
87847.25	100	619	17	1	23	7	4	15	1	0	0	stim005_stimuli_original_animals_fish_1.png	Y	0	0	0	367.596740700072	367.796739300014
87947.25	100	620	17	1	23	8	3	7	0	0	0	stim004_stimuli_original_animals_birds_4.png	J	0	0	0	367.996749000042	368.196757400059
88047.25	100	621	17	1	23	9	4	10	1	1	0	stim005_stimuli_original_animals_fish_1.png	Q	0	0	0	368.396767200087	368.596760199987
88147.25	100	622	17	1	23	10	10	0	0	0	0	stim011_stimuli_original_vehicles_boats_3.png	A	0	0	0	368.796771700028	368.996771000093
88247.25	100	623	17	1	23	11	1	10	0	1	1	stim002_stimuli_original_animals_birds_2.png	Q	0	0	0	369.196787300054	369.396783400094
88347.25	100	624	17	1	23	12	5	5	0	0	0	stim006_stimuli_original_animals_fish_2.png	F	0	0	0	369.596799100051	369.796805400052
88447.25	100	625	17	1	23	13	8	1	0	0	0	stim009_stimuli_original_vehicles_boats_1.png	B	f	369.989361600019	1	369.996845500078	370.196808500099
88547.25	100	626	17	1	23	14	2	9	0	0	0	stim003_stimuli_original_animals_birds_3.png	L	0	0	0	370.396819300018	370.596822199994
88647.25	100	627	17	1	23	15	13	6	0	0	0	stim014_stimuli_original_vehicles_planes_2.png	G	0	0	0	370.796829400002	370.996830100077
88747.25	100	628	17	1	23	16	0	11	0	0	0	stim001_stimuli_original_animals_birds_1.png	R	0	0	0	371.196840299992	371.396839600056
88847.25	100	629	17	1	23	17	12	3	0	0	0	stim013_stimuli_original_vehicles_planes_1.png	D	0	0	0	371.596853299998	371.796852000058
88947.25	100	630	17	1	23	18	3	12	0	0	0	stim004_stimuli_original_animals_birds_4.png	T	0	0	0	371.996861700085	372.196864900063
89047.25	100	631	17	1	23	19	11	0	0	0	0	stim012_stimuli_original_vehicles_boats_4.png	A	0	0	0	372.396873000078	372.596872600028
89147.25	100	632	17	1	23	20	6	13	0	0	0	stim007_stimuli_original_animals_fish_3.png	U	0	0	0	372.796912500053	372.996885400033
89247.25	100	633	17	1	23	21	9	2	0	0	0	stim010_stimuli_original_vehicles_boats_2.png	C	0	0	0	373.196920900024	373.396897000028
89347.25	100	634	17	1	23	22	1	8	0	0	0	stim002_stimuli_original_animals_birds_2.png	K	0	0	0	373.59690730006	373.796908600023
89447.25	100	635	17	1	23	23	5	5	0	0	0	stim006_stimuli_original_animals_fish_2.png	F	0	0	0	373.99691820005	374.196918200003
89547.25	100	636	17	1	23	24	10	1	1	0	0	stim011_stimuli_original_vehicles_boats_3.png	B	0	0	0	374.396930400049	374.596930700005
89647.25	100	637	17	1	23	25	0	10	0	0	0	stim001_stimuli_original_animals_birds_1.png	Q	0	0	0	374.796941600041	374.996945100022
89747.25	100	638	17	1	23	26	10	4	1	1	0	stim011_stimuli_original_vehicles_boats_3.png	E	0	0	0	375.196960300091	375.396951200091
89847.25	100	639	17	1	23	27	7	3	0	0	0	stim008_stimuli_original_animals_fish_4.png	D	0	0	0	375.596962900017	375.796979100094
89947.25	100	640	17	1	23	28	15	4	0	1	1	stim016_stimuli_original_vehicles_planes_4.png	E	0	0	0	375.996972499997	376.196974600083
90047.25	100	641	17	1	23	29	2	14	0	0	0	stim003_stimuli_original_animals_birds_3.png	V	0	0	0	376.396985600004	376.596983700059
90147.25	100	642	17	1	23	30	13	6	0	0	0	stim014_stimuli_original_vehicles_planes_2.png	G	f	376.98878470005	1	376.79699599999	376.99699600006
90247.25	100	643	17	1	23	31	10	7	0	0	0	stim011_stimuli_original_vehicles_boats_3.png	J	0	0	0	377.197010500007	377.397010300076
90347.25	100	644	17	1	23	32	14	9	0	0	0	stim015_stimuli_original_vehicles_planes_3.png	L	0	0	0	377.597019100096	377.797019500053
90447.25	100	645	17	1	23	33	12	4	0	0	0	stim013_stimuli_original_vehicles_planes_1.png	E	0	0	0	377.997053100029	378.197029600036
90547.25	100	646	17	1	23	34	4	15	0	0	0	stim005_stimuli_original_animals_fish_1.png	Y	0	0	0	378.397041700082	378.59704230004
90647.25	100	647	17	1	23	35	8	11	0	0	0	stim009_stimuli_original_vehicles_boats_1.png	R	0	0	0	378.797052900074	378.997052000021
91255.75	100	648	18	0	6	0	12	8	0	0	0	stim013_stimuli_original_vehicles_planes_1.png	K	0	0	0	381.230454500066	381.43045330001
91355.75	100	649	18	0	6	1	4	2	0	0	0	stim005_stimuli_original_animals_fish_1.png	C	0	0	0	381.63048990001	381.830462699989
91455.75	100	650	18	0	6	2	6	0	0	0	0	stim007_stimuli_original_animals_fish_3.png	A	0	0	0	382.030474900035	382.230473600095
91555.75	100	651	18	0	6	3	15	1	0	0	0	stim016_stimuli_original_vehicles_planes_4.png	B	0	0	0	382.430484800017	382.630486200098
91655.75	100	652	18	0	6	4	14	9	1	0	0	stim015_stimuli_original_vehicles_planes_3.png	L	0	0	0	382.830496200011	383.03049740009
91755.75	100	653	18	0	6	5	5	12	0	0	0	stim006_stimuli_original_animals_fish_2.png	T	0	0	0	383.230508000008	383.430508700083
91855.75	100	654	18	0	6	6	14	4	1	0	1	stim015_stimuli_original_vehicles_planes_3.png	E	0	0	0	383.630531600094	383.830539199989
91955.75	100	655	18	0	6	7	10	13	0	0	0	stim011_stimuli_original_vehicles_boats_3.png	U	0	0	0	384.030529599986	384.230535000097
92055.75	100	656	18	0	6	8	8	3	0	0	0	stim009_stimuli_original_vehicles_boats_1.png	D	0	0	0	384.430540400092	384.630541200051
92155.75	100	657	18	0	6	9	3	5	0	0	0	stim004_stimuli_original_animals_birds_4.png	F	0	0	0	384.830554499989	385.030556700076
92255.75	100	658	18	0	6	10	7	10	0	0	0	stim008_stimuli_original_animals_fish_4.png	Q	0	0	0	385.230564000085	385.430569100077
92355.75	100	659	18	0	6	11	11	6	0	0	0	stim012_stimuli_original_vehicles_boats_4.png	G	0	0	0	385.630575400079	385.830596300075
92455.75	100	660	18	0	6	12	14	4	0	1	0	stim015_stimuli_original_vehicles_planes_3.png	E	0	0	0	386.030585300061	386.23059520009
92555.75	100	661	18	0	6	13	2	7	0	0	0	stim003_stimuli_original_animals_birds_3.png	J	0	0	0	386.430597000057	386.630600200035
92655.75	100	662	18	0	6	14	9	4	0	1	0	stim010_stimuli_original_vehicles_boats_2.png	E	0	0	0	386.8306171	387.030608000001
92755.75	100	663	18	0	6	15	13	14	0	0	0	stim014_stimuli_original_vehicles_planes_2.png	V	0	0	0	387.230620400049	387.430620600004
92855.75	100	664	18	0	6	16	1	11	0	0	0	stim002_stimuli_original_animals_birds_2.png	R	0	0	0	387.630631800042	387.830631299992
92955.75	100	665	18	0	6	17	0	15	0	0	0	stim001_stimuli_original_animals_birds_1.png	Y	0	0	0	388.030643000035	388.230643399991
93055.75	100	666	18	0	6	18	15	0	0	0	0	stim016_stimuli_original_vehicles_planes_4.png	A	0	0	0	388.430681400001	388.630653100088
93155.75	100	667	18	0	6	19	11	1	0	0	0	stim012_stimuli_original_vehicles_boats_4.png	B	0	0	0	388.830666300026	389.030678900075
93255.75	100	668	18	0	6	20	14	13	0	0	0	stim015_stimuli_original_vehicles_planes_3.png	U	0	0	0	389.230680100038	389.430678000092
93355.75	100	669	18	0	6	21	4	9	1	0	0	stim005_stimuli_original_animals_fish_1.png	L	0	0	0	389.630686499993	389.830686600064
93455.75	100	670	18	0	6	22	7	2	0	0	0	stim008_stimuli_original_animals_fish_4.png	C	0	0	0	390.030699900002	390.230696900049
93555.75	100	671	18	0	6	23	4	14	1	0	1	stim005_stimuli_original_animals_fish_1.png	V	0	0	0	390.430710599991	390.630710400059
93655.75	100	672	18	0	6	24	6	11	0	0	0	stim007_stimuli_original_animals_fish_3.png	R	f	390.823285600054	1	390.830721400096	391.030745099997
93755.75	100	673	18	0	6	25	10	7	0	0	0	stim011_stimuli_original_vehicles_boats_3.png	J	0	0	0	391.230731700081	391.430734500056
93855.75	100	674	18	0	6	26	5	3	0	0	0	stim006_stimuli_original_animals_fish_2.png	D	0	0	0	391.630765600014	391.83074590005
93955.75	100	675	18	0	6	27	3	8	0	0	0	stim004_stimuli_original_animals_birds_4.png	K	0	0	0	392.030758200097	392.230756400037
94055.75	100	676	18	0	6	28	13	10	0	0	0	stim014_stimuli_original_vehicles_planes_2.png	Q	0	0	0	392.430766000063	392.630764600006
94155.75	100	677	18	0	6	29	4	14	0	1	0	stim005_stimuli_original_animals_fish_1.png	V	0	0	0	392.830777400057	393.030775699997
94255.75	100	678	18	0	6	30	12	5	0	0	0	stim013_stimuli_original_vehicles_planes_1.png	F	0	0	0	393.230786500033	393.430790600018
94355.75	100	679	18	0	6	31	9	14	0	1	0	stim010_stimuli_original_vehicles_boats_2.png	V	0	0	0	393.630812500021	393.830800099997
94455.75	100	680	18	0	6	32	1	15	0	0	0	stim002_stimuli_original_animals_birds_2.png	Y	0	0	0	394.030810700031	394.230822800077
94555.75	100	681	18	0	6	33	0	6	0	0	0	stim001_stimuli_original_animals_birds_1.png	G	0	0	0	394.430821400019	394.630822999985
94655.75	100	682	18	0	6	34	2	4	0	0	0	stim003_stimuli_original_animals_birds_3.png	E	0	0	0	394.830831900006	395.030831400072
94755.75	100	683	18	0	6	35	8	12	0	0	0	stim009_stimuli_original_vehicles_boats_1.png	T	0	0	0	395.230844800011	395.430845100083
95805.75	100	684	19	1	25	0	2	10	0	0	0	stim003_stimuli_original_animals_birds_3.png	Q	0	0	0	399.430991800036	399.6309910001
95905.75	100	685	19	1	25	1	5	6	0	0	0	stim006_stimuli_original_animals_fish_2.png	G	0	0	0	399.83100320003	400.031003000098
96005.75	100	686	19	1	25	2	11	7	0	0	0	stim012_stimuli_original_vehicles_boats_4.png	J	0	0	0	400.231003300054	400.4310154001
96105.75	100	687	19	1	25	3	0	3	0	0	0	stim001_stimuli_original_animals_birds_1.png	D	0	0	0	400.630991100101	400.83102250006
96205.75	100	688	19	1	25	4	12	5	0	0	0	stim013_stimuli_original_vehicles_planes_1.png	F	0	0	0	401.031034799991	401.231024899986
96305.75	100	689	19	1	25	5	13	15	0	0	0	stim014_stimuli_original_vehicles_planes_2.png	Y	0	0	0	401.431046599988	401.631048900075
96405.75	100	690	19	1	25	6	1	8	0	0	0	stim002_stimuli_original_animals_birds_2.png	K	0	0	0	401.831057700096	402.031060600071
96505.75	100	691	19	1	25	7	0	0	1	0	0	stim001_stimuli_original_animals_birds_1.png	A	0	0	0	402.231055499986	402.431067800033
96605.75	100	692	19	1	25	8	7	11	0	0	0	stim008_stimuli_original_animals_fish_4.png	R	0	0	0	402.631082200096	402.831056200084
96705.75	100	693	19	1	25	9	0	9	1	0	0	stim001_stimuli_original_animals_birds_1.png	L	0	0	0	403.031090600067	403.231096400064
96805.75	100	694	19	1	25	10	14	2	0	0	0	stim015_stimuli_original_vehicles_planes_3.png	C	0	0	0	403.431104700081	403.631102000014
96905.75	100	695	19	1	25	11	8	4	0	1	0	stim009_stimuli_original_vehicles_boats_1.png	E	0	0	0	403.831122600008	404.031115300022
97005.75	100	696	19	1	25	12	4	12	0	0	0	stim005_stimuli_original_animals_fish_1.png	T	0	0	0	404.231128200074	404.431127000018
97105.75	100	697	19	1	25	13	6	4	0	1	1	stim007_stimuli_original_animals_fish_3.png	E	0	0	0	404.631137200049	404.8311369
97205.75	100	698	19	1	25	14	9	14	0	0	0	stim010_stimuli_original_vehicles_boats_2.png	V	f	405.222938699997	1	405.031152500072	405.231147999992
97305.75	100	699	19	1	25	15	10	13	0	0	0	stim011_stimuli_original_vehicles_boats_3.png	U	0	0	0	405.431136200088	405.631159599987
97405.75	100	700	19	1	25	16	15	1	0	0	0	stim016_stimuli_original_vehicles_planes_4.png	B	0	0	0	405.831170000019	406.031161500025
97505.75	100	701	19	1	25	17	3	4	0	0	0	stim004_stimuli_original_animals_birds_4.png	E	0	0	0	406.231170000043	406.431181800086
97605.75	100	702	19	1	25	18	4	3	0	0	0	stim005_stimuli_original_animals_fish_1.png	D	0	0	0	406.631191799999	406.831195100094
97705.75	100	703	19	1	25	19	1	15	0	0	0	stim002_stimuli_original_animals_birds_2.png	Y	0	0	0	407.0312020001	407.23120420007
97806	100	704	19	1	25	20	13	10	0	0	0	stim014_stimuli_original_vehicles_planes_2.png	Q	0	0	0	407.431214799988	407.631219700095
97906	100	705	19	1	25	21	14	9	0	0	0	stim015_stimuli_original_vehicles_planes_3.png	L	0	0	0	407.831227499992	408.031241800054
98006	100	706	19	1	25	22	4	6	1	0	0	stim005_stimuli_original_animals_fish_1.png	G	0	0	0	408.231239199988	408.431223600055
98106	100	707	19	1	25	23	12	4	0	0	0	stim013_stimuli_original_vehicles_planes_1.png	E	0	0	0	408.631256100023	408.831247600028
98206	100	708	19	1	25	24	4	8	1	0	0	stim005_stimuli_original_animals_fish_1.png	K	0	0	0	409.03126050008	409.231261500041
98306	100	709	19	1	25	25	2	14	0	0	0	stim003_stimuli_original_animals_birds_3.png	V	0	0	0	409.431273000082	409.631271500024
98406	100	710	19	1	25	26	9	0	0	1	0	stim010_stimuli_original_vehicles_boats_2.png	A	0	0	0	409.831283100066	410.031280700001
98506	100	711	19	1	25	27	11	7	0	0	0	stim012_stimuli_original_vehicles_boats_4.png	J	0	0	0	410.231275800033	410.431293200003
98606	100	712	19	1	25	28	0	0	0	1	1	stim001_stimuli_original_animals_birds_1.png	A	0	0	0	410.631329099997	410.831305
98706	100	713	19	1	25	29	8	1	0	0	0	stim009_stimuli_original_vehicles_boats_1.png	B	0	0	0	411.031299300026	411.231319200015
98806	100	714	19	1	25	30	15	13	0	0	0	stim016_stimuli_original_vehicles_planes_4.png	U	0	0	0	411.431326800026	411.631328099989
98906	100	715	19	1	25	31	5	12	0	0	0	stim006_stimuli_original_animals_fish_2.png	T	0	0	0	411.831338700023	412.031339899986
99006	100	716	19	1	25	32	3	0	0	0	0	stim004_stimuli_original_animals_birds_4.png	A	0	0	0	412.231350800022	412.431347800069
99106	100	717	19	1	25	33	7	11	0	0	0	stim008_stimuli_original_animals_fish_4.png	R	0	0	0	412.631362100015	412.831355500035
99206	100	718	19	1	25	34	6	5	0	0	0	stim007_stimuli_original_animals_fish_3.png	F	0	0	0	413.031373400008	413.231375500094
99306	100	719	19	1	25	35	10	2	0	0	0	stim011_stimuli_original_vehicles_boats_3.png	C	0	0	0	413.431374400039	413.631367600057
99881	100	720	20	0	25	0	2	10	0	0	0	stim003_stimuli_original_animals_birds_3.png	Q	0	0	0	415.731436500093	415.931448400021
99981	100	721	20	0	25	1	5	6	0	0	0	stim006_stimuli_original_animals_fish_2.png	G	0	0	0	416.131459600059	416.331458000001
100081	100	722	20	0	25	2	11	7	0	0	0	stim012_stimuli_original_vehicles_boats_4.png	J	0	0	0	416.531472700066	416.731481900089
100181	100	723	20	0	25	3	0	3	0	0	0	stim001_stimuli_original_animals_birds_1.png	D	0	0	0	416.931482700049	417.131470700027
100281	100	724	20	0	25	4	12	5	0	0	0	stim013_stimuli_original_vehicles_planes_1.png	F	0	0	0	417.331487899995	417.531495800009
100381	100	725	20	0	25	5	13	15	0	0	0	stim014_stimuli_original_vehicles_planes_2.png	Y	0	0	0	417.731515199994	417.931504200096
100481	100	726	20	0	25	6	1	8	0	0	0	stim002_stimuli_original_animals_birds_2.png	K	0	0	0	418.131515200017	418.331499700085
100581	100	727	20	0	25	7	0	0	1	0	0	stim001_stimuli_original_animals_birds_1.png	A	0	0	0	418.531525300001	418.731524600065
100681	100	728	20	0	25	8	7	11	0	0	0	stim008_stimuli_original_animals_fish_4.png	R	0	0	0	418.931537700002	419.131541999988
100781	100	729	20	0	25	9	0	9	1	0	1	stim001_stimuli_original_animals_birds_1.png	L	0	0	0	419.331548899994	419.531547800056
100881	100	730	20	0	25	10	14	2	0	0	0	stim015_stimuli_original_vehicles_planes_3.png	C	0	0	0	419.731563600013	419.931535100099
100981	100	731	20	0	25	11	8	4	0	1	0	stim009_stimuli_original_vehicles_boats_1.png	E	f	420.124117100029	1	420.131571500096	420.33158420003
101081	100	732	20	0	25	12	4	12	0	0	0	stim005_stimuli_original_animals_fish_1.png	T	0	0	0	420.531567700091	420.731611100025
101181	100	733	20	0	25	13	6	4	0	1	0	stim007_stimuli_original_animals_fish_3.png	E	0	0	0	420.931600400014	421.131596300052
101281	100	734	20	0	25	14	9	14	0	0	0	stim010_stimuli_original_vehicles_boats_2.png	V	0	0	0	421.33160730009	421.53160430002
101381	100	735	20	0	25	15	10	13	0	0	0	stim011_stimuli_original_vehicles_boats_3.png	U	0	0	0	421.731615500059	421.931621300057
101481	100	736	20	0	25	16	15	1	0	0	0	stim016_stimuli_original_vehicles_planes_4.png	B	0	0	0	422.131629600073	422.331626300002
101581	100	737	20	0	25	17	3	4	0	0	0	stim004_stimuli_original_animals_birds_4.png	E	0	0	0	422.531624000054	422.731637099991
101681	100	738	20	0	25	18	4	3	0	0	0	stim005_stimuli_original_animals_fish_1.png	D	0	0	0	422.93164970004	423.131643700064
101781	100	739	20	0	25	19	1	15	0	0	0	stim002_stimuli_original_animals_birds_2.png	Y	0	0	0	423.331661100034	423.531646699994
101881	100	740	20	0	25	20	13	10	0	0	0	stim014_stimuli_original_vehicles_planes_2.png	Q	0	0	0	423.731673000031	423.931660200004
101981	100	741	20	0	25	21	14	9	0	0	0	stim015_stimuli_original_vehicles_planes_3.png	L	0	0	0	424.131683400017	424.331683000084
102081	100	742	20	0	25	22	4	6	1	0	0	stim005_stimuli_original_animals_fish_1.png	G	0	0	0	424.531694900012	424.731694300077
102181	100	743	20	0	25	23	12	4	0	0	0	stim013_stimuli_original_vehicles_planes_1.png	E	0	0	0	424.931706500007	425.131719500059
102281	100	744	20	0	25	24	4	8	1	0	1	stim005_stimuli_original_animals_fish_1.png	K	0	0	0	425.331716899993	425.531706100097
102381	100	745	20	0	25	25	2	14	0	0	0	stim003_stimuli_original_animals_birds_3.png	V	0	0	0	425.73171870003	425.931728000054
102481	100	746	20	0	25	26	9	0	0	1	0	stim010_stimuli_original_vehicles_boats_2.png	A	f	426.32354100002	1	426.131741199992	426.331744600087
102581	100	747	20	0	25	27	11	7	0	0	0	stim012_stimuli_original_vehicles_boats_4.png	J	0	0	0	426.531751300092	426.731750800041
102681	100	748	20	0	25	28	0	0	0	1	0	stim001_stimuli_original_animals_birds_1.png	A	0	0	0	426.931760900072	427.131761200028
102781	100	749	20	0	25	29	8	1	0	0	0	stim009_stimuli_original_vehicles_boats_1.png	B	0	0	0	427.331760000088	427.531778600067
102881	100	750	20	0	25	30	15	13	0	0	0	stim016_stimuli_original_vehicles_planes_4.png	U	0	0	0	427.731805699994	427.931784800021
102981	100	751	20	0	25	31	5	12	0	0	0	stim006_stimuli_original_animals_fish_2.png	T	0	0	0	428.131793900044	428.331781500019
103081	100	752	20	0	25	32	3	0	0	0	0	stim004_stimuli_original_animals_birds_4.png	A	0	0	0	428.531807300053	428.7318065
103181	100	753	20	0	25	33	7	11	0	0	0	stim008_stimuli_original_animals_fish_4.png	R	0	0	0	428.93181660003	429.13182000001
103281	100	754	20	0	25	34	6	5	0	0	0	stim007_stimuli_original_animals_fish_3.png	F	0	0	0	429.331828300026	429.531828999985
103381	100	755	20	0	25	35	10	2	0	0	0	stim011_stimuli_original_vehicles_boats_3.png	C	0	0	0	429.73185099999	429.931843300001
103931	100	756	21	1	43	0	4	12	0	0	0	stim005_stimuli_original_animals_fish_1.png	T	0	0	0	431.931900600088	432.131902700057
104031	100	757	21	1	43	1	15	0	0	0	0	stim016_stimuli_original_vehicles_planes_4.png	A	0	0	0	432.33192050003	432.531908300007
104131	100	758	21	1	43	2	2	13	0	0	0	stim003_stimuli_original_animals_birds_3.png	U	0	0	0	432.73194670002	432.931920300005
104231	100	759	21	1	43	3	13	10	0	0	0	stim014_stimuli_original_vehicles_planes_2.png	Q	0	0	0	433.131931600044	433.331934800022
104331	100	760	21	1	43	4	5	9	1	0	0	stim006_stimuli_original_animals_fish_2.png	L	0	0	0	433.531942400034	433.731943499995
104431	100	761	21	1	43	5	11	3	0	0	0	stim012_stimuli_original_vehicles_boats_4.png	D	0	0	0	433.931945900084	434.131953900098
104531	100	762	21	1	43	6	5	5	1	0	0	stim006_stimuli_original_animals_fish_2.png	F	0	0	0	434.331967200036	434.531966500101
104631	100	763	21	1	43	7	12	1	0	0	0	stim013_stimuli_original_vehicles_planes_1.png	B	0	0	0	434.731976500014	434.931964599993
104731	100	764	21	1	43	8	7	6	0	0	0	stim008_stimuli_original_animals_fish_4.png	G	0	0	0	435.131988900015	435.331991099985
104831	100	765	21	1	43	9	1	8	0	0	0	stim002_stimuli_original_animals_birds_2.png	K	0	0	0	435.532001200016	435.732003399986
104931	100	766	21	1	43	10	5	4	0	0	0	stim006_stimuli_original_animals_fish_2.png	E	0	0	0	435.932014800026	436.132013500086
105031	100	767	21	1	43	11	0	11	0	0	0	stim001_stimuli_original_animals_birds_1.png	R	0	0	0	436.332027200027	436.532008200069
105131	100	768	21	1	43	12	9	3	0	1	0	stim010_stimuli_original_vehicles_boats_2.png	D	0	0	0	436.732021200005	436.932050300064
105231	100	769	21	1	43	13	14	2	0	0	0	stim015_stimuli_original_vehicles_planes_3.png	C	0	0	0	437.132045600098	437.332047400065
105331	100	770	21	1	43	14	10	3	0	1	1	stim011_stimuli_original_vehicles_boats_3.png	D	0	0	0	437.532058699988	437.732057800051
105431	100	771	21	1	43	15	6	14	0	0	0	stim007_stimuli_original_animals_fish_3.png	V	0	0	0	437.932057400001	438.132072100067
105531	100	772	21	1	43	16	8	7	0	0	0	stim009_stimuli_original_vehicles_boats_1.png	J	f	438.324608299998	1	438.332079300075	438.532082500053
105631	100	773	21	1	43	17	3	15	0	0	0	stim004_stimuli_original_animals_birds_4.png	Y	0	0	0	438.732092600083	438.932092500036
105731	100	774	21	1	43	18	15	3	0	0	0	stim016_stimuli_original_vehicles_planes_4.png	D	0	0	0	439.132091999985	439.332102900022
105831	100	775	21	1	43	19	7	8	0	0	0	stim008_stimuli_original_animals_fish_4.png	K	0	0	0	439.532113500056	439.732106800075
105931	100	776	21	1	43	20	14	6	0	0	0	stim015_stimuli_original_vehicles_planes_3.png	G	0	0	0	439.932124800049	440.132125700009
106031	100	777	21	1	43	21	3	10	1	0	0	stim004_stimuli_original_animals_birds_4.png	Q	0	0	0	440.332138200058	440.532137000002
106131	100	778	21	1	43	22	2	14	0	0	0	stim003_stimuli_original_animals_birds_3.png	V	0	0	0	440.732149800053	440.932148199994
106231	100	779	21	1	43	23	3	9	1	0	0	stim004_stimuli_original_animals_birds_4.png	L	0	0	0	441.132160800043	441.3321612
106331	100	780	21	1	43	24	11	0	0	0	0	stim012_stimuli_original_vehicles_boats_4.png	A	0	0	0	441.532168700011	441.732185500092
106431	100	781	21	1	43	25	4	5	0	0	0	stim005_stimuli_original_animals_fish_1.png	F	0	0	0	441.93218480004	442.132179700071
106531	100	782	21	1	43	26	8	1	0	0	0	stim009_stimuli_original_vehicles_boats_1.png	B	0	0	0	442.332201300072	442.532191900071
106631	100	783	21	1	43	27	6	7	0	0	0	stim007_stimuli_original_animals_fish_3.png	J	0	0	0	442.732203399995	442.932204400073
106731	100	784	21	1	43	28	1	12	0	0	0	stim002_stimuli_original_animals_birds_2.png	T	0	0	0	443.132215199992	443.332216500072
106831	100	785	21	1	43	29	5	5	0	1	0	stim006_stimuli_original_animals_fish_2.png	F	0	0	0	443.532226100098	443.73222590005
106931	100	786	21	1	43	30	3	11	0	0	0	stim004_stimuli_original_animals_birds_4.png	R	0	0	0	443.932230400038	444.132237000042
107031	100	787	21	1	43	31	9	5	0	1	1	stim010_stimuli_original_vehicles_boats_2.png	F	f	444.324754600064	1	444.332275800058	444.532248700038
107131	100	788	21	1	43	32	10	13	0	0	0	stim011_stimuli_original_vehicles_boats_3.png	U	0	0	0	444.732258700067	444.932251400081
107231	100	789	21	1	43	33	13	2	0	0	0	stim014_stimuli_original_vehicles_planes_2.png	C	0	0	0	445.132270800066	445.332270600018
107331	100	790	21	1	43	34	0	15	0	0	0	stim001_stimuli_original_animals_birds_1.png	Y	0	0	0	445.532286000089	445.73228180001
107431	100	791	21	1	43	35	12	4	0	0	0	stim013_stimuli_original_vehicles_planes_1.png	E	0	0	0	445.932294700062	446.132293800008
108031.25	100	792	22	0	40	0	11	14	0	0	0	stim012_stimuli_original_vehicles_boats_4.png	V	0	0	0	448.332362200017	448.532344000065
108131.25	100	793	22	0	40	1	8	0	0	0	0	stim009_stimuli_original_vehicles_boats_1.png	A	0	0	0	448.732368900091	448.932370500057
108231.25	100	794	22	0	40	2	6	2	0	0	0	stim007_stimuli_original_animals_fish_3.png	C	0	0	0	449.132383899996	449.332384300069
108331.25	100	795	22	0	40	3	9	6	0	0	0	stim010_stimuli_original_vehicles_boats_2.png	G	0	0	0	449.532393900095	449.732396600069
108431.25	100	796	22	0	40	4	2	7	1	0	0	stim003_stimuli_original_animals_birds_3.png	J	0	0	0	449.93240540009	450.132405100041
108531.25	100	797	22	0	40	5	14	4	0	0	0	stim015_stimuli_original_vehicles_planes_3.png	E	0	0	0	450.332417000085	450.532403100049
108631.25	100	798	22	0	40	6	2	13	1	1	1	stim003_stimuli_original_animals_birds_3.png	U	0	0	0	450.732428900083	450.932429700042
108731.25	100	799	22	0	40	7	4	9	0	0	0	stim005_stimuli_original_animals_fish_1.png	L	0	0	0	451.132416400011	451.332440900034
108831.25	100	800	22	0	40	8	12	13	0	1	0	stim013_stimuli_original_vehicles_planes_1.png	U	0	0	0	451.532448900049	451.732436600025
