onset	duration	eventnumber	sequencenumber	condition	streamnumber	stimnumber	objectstimnumber	letterstimnumber	objecttarget	lettertarget	is2back	objectstim	letterstim	response	rt	correct	time_stimon	time_stimoff
13227.5	100	0	0	1	38	0	14	13	0	0	0	stim015_stimuli_original_vehicles_planes_3.png	U	0	0	0	68.4322702999925	68.6322475000052
13327.5	100	1	0	1	38	1	6	8	0	0	0	stim007_stimuli_original_animals_fish_3.png	K	0	0	0	68.8326391999726	69.0322366000037
13427.5	100	2	0	1	38	2	0	1	0	0	0	stim001_stimuli_original_animals_birds_1.png	B	0	0	0	69.232242500002	69.4322420999524
13527.5	100	3	0	1	38	3	7	2	0	0	0	stim008_stimuli_original_animals_fish_4.png	C	0	0	0	69.6322522999835	69.8322513999883
13627.5	100	4	0	1	38	4	11	11	0	0	0	stim012_stimuli_original_vehicles_boats_4.png	R	0	0	0	70.0322642999818	70.2322652000003
13727.5	100	5	0	1	38	5	15	6	0	0	0	stim016_stimuli_original_vehicles_planes_4.png	G	0	0	0	70.4322774999891	70.6322723999619
13827.5	100	6	0	1	38	6	12	7	0	0	0	stim013_stimuli_original_vehicles_planes_1.png	J	0	0	0	70.8322857999592	71.0322839999571
13927.5	100	7	0	1	38	7	4	9	0	0	0	stim005_stimuli_original_animals_fish_1.png	L	0	0	0	71.2322974999552	71.4322947000037
14027.5	100	8	0	1	38	8	1	3	0	0	0	stim002_stimuli_original_animals_birds_2.png	D	0	0	0	71.6323074999964	71.8323048999882
14127.5	100	9	0	1	38	9	15	0	1	0	0	stim016_stimuli_original_vehicles_planes_4.png	A	0	0	0	72.0323172999779	72.2323155999766
14227.5	100	10	0	1	38	10	8	15	0	0	0	stim009_stimuli_original_vehicles_boats_1.png	Y	0	0	0	72.4323270999594	72.6323268999695
14327.5	100	11	0	1	38	11	15	10	1	0	0	stim016_stimuli_original_vehicles_planes_4.png	Q	0	0	0	72.832338200009	73.0323357000016
14427.5	100	12	0	1	38	12	5	1	0	1	0	stim006_stimuli_original_animals_fish_2.png	B	0	0	0	73.2323515999597	73.4323496999568
14527.5	100	13	0	1	38	13	2	4	0	0	0	stim003_stimuli_original_animals_birds_3.png	E	0	0	0	73.6323575999704	73.8323580999859
14627.5	100	14	0	1	38	14	3	1	0	1	1	stim004_stimuli_original_animals_birds_4.png	B	0	0	0	74.0323791999836	74.2326492999564
14727.5	100	15	0	1	38	15	10	14	0	0	0	stim011_stimuli_original_vehicles_boats_3.png	V	f	74.4251187999616	1	74.4323825999745	74.6323822999839
14827.5	100	16	0	1	38	16	13	5	0	0	0	stim014_stimuli_original_vehicles_planes_2.png	F	0	0	0	74.8323910000036	75.0323919999646
14927.5	100	17	0	1	38	17	9	12	0	0	0	stim010_stimuli_original_vehicles_boats_2.png	T	0	0	0	75.2324034000048	75.4324013000005
15027.5	100	18	0	1	38	18	12	9	0	0	0	stim013_stimuli_original_vehicles_planes_1.png	L	0	0	0	75.6324261999689	75.8324223000091
15127.5	100	19	0	1	38	19	5	13	0	0	0	stim006_stimuli_original_animals_fish_2.png	U	0	0	0	76.0324341999949	76.2324369999697
15227.5	100	20	0	1	38	20	14	10	0	0	0	stim015_stimuli_original_vehicles_planes_3.png	Q	0	0	0	76.4324447999825	76.6324450999964
15327.5	100	21	0	1	38	21	1	3	1	0	0	stim002_stimuli_original_animals_birds_2.png	D	0	0	0	76.8324571999838	77.0324557999847
15427.5	100	22	0	1	38	22	4	2	0	0	0	stim005_stimuli_original_animals_fish_1.png	C	0	0	0	77.2324658999569	77.4324647999601
15527.5	100	23	0	1	38	23	1	5	1	0	0	stim002_stimuli_original_animals_birds_2.png	F	0	0	0	77.6324763000011	77.8324766999576
15627.5	100	24	0	1	38	24	10	15	0	1	0	stim011_stimuli_original_vehicles_boats_3.png	Y	0	0	0	78.0324863999849	78.2324877000065
15727.5	100	25	0	1	38	25	15	8	0	0	0	stim016_stimuli_original_vehicles_planes_4.png	K	0	0	0	78.4324994999915	78.6324999000062
15827.5	100	26	0	1	38	26	0	15	0	1	1	stim001_stimuli_original_animals_birds_1.png	Y	0	0	0	78.8325105999829	79.0325100999908
15927.5	100	27	0	1	38	27	3	1	0	0	0	stim004_stimuli_original_animals_birds_4.png	B	f	79.424309999973	1	79.2325197999598	79.4325210999814
16027.5	100	28	0	1	38	28	9	4	0	0	0	stim010_stimuli_original_vehicles_boats_2.png	E	0	0	0	79.632555899967	79.8325358000002
16127.5	100	29	0	1	38	29	7	12	0	0	0	stim008_stimuli_original_animals_fish_4.png	T	0	0	0	80.0325412999955	80.2325424999581
16227.5	100	30	0	1	38	30	6	15	0	0	0	stim007_stimuli_original_animals_fish_3.png	Y	0	0	0	80.4325519999838	80.632554199954
16327.5	100	31	0	1	38	31	11	11	0	0	0	stim012_stimuli_original_vehicles_boats_4.png	R	f	81.0373427000013	1	80.832563199976	81.0325633999892
16427.5	100	32	0	1	38	32	2	7	0	0	0	stim003_stimuli_original_animals_birds_3.png	J	0	0	0	81.2325792000047	81.4325740999775
16527.5	100	33	0	1	38	33	1	0	0	0	0	stim002_stimuli_original_animals_birds_2.png	A	0	0	0	81.6325839000056	81.8325889999978
16627.5	100	34	0	1	38	34	8	6	0	0	0	stim009_stimuli_original_vehicles_boats_1.png	G	0	0	0	82.0325941999909	82.2325946000055
16727.5	100	35	0	1	38	35	13	14	0	0	0	stim014_stimuli_original_vehicles_planes_2.png	V	0	0	0	82.4326037999708	82.6326058999985
18336	100	36	1	0	21	0	4	7	0	0	0	stim005_stimuli_original_animals_fish_1.png	J	0	0	0	88.8661281999666	89.0661255999585
18436	100	37	1	0	21	1	5	11	0	0	0	stim006_stimuli_original_animals_fish_2.png	R	0	0	0	89.2661405999679	89.4661351999966
18536	100	38	1	0	21	2	13	9	0	0	0	stim014_stimuli_original_vehicles_planes_2.png	L	0	0	0	89.6661711999914	89.8661470999941
18636	100	39	1	0	21	3	14	8	0	0	0	stim015_stimuli_original_vehicles_planes_3.png	K	0	0	0	90.0661577999708	90.2661589999916
18736	100	40	1	0	21	4	2	10	0	0	0	stim003_stimuli_original_animals_birds_3.png	Q	0	0	0	90.4661690999637	90.6661722999997
18836	100	41	1	0	21	5	15	3	0	0	0	stim016_stimuli_original_vehicles_planes_4.png	D	0	0	0	90.8661799999536	91.0661794999614
18936	100	42	1	0	21	6	9	13	0	1	0	stim010_stimuli_original_vehicles_boats_2.png	U	0	0	0	91.2661889999872	91.4661722999881
19036	100	43	1	0	21	7	6	1	0	0	0	stim007_stimuli_original_animals_fish_3.png	B	0	0	0	91.6661736000096	91.8661749999737
19136	100	44	1	0	21	8	1	13	0	1	0	stim002_stimuli_original_animals_birds_2.png	U	0	0	0	92.0661860999535	92.2661856999621
19236	100	45	1	0	21	9	3	4	0	0	0	stim004_stimuli_original_animals_birds_4.png	E	0	0	0	92.4661966999993	92.6661958000041
19336	100	46	1	0	21	10	5	6	1	0	0	stim006_stimuli_original_animals_fish_2.png	G	0	0	0	92.8662077999907	93.0662063999916
19436	100	47	1	0	21	11	11	0	0	0	0	stim012_stimuli_original_vehicles_boats_4.png	A	0	0	0	93.2662178999744	93.4662162999739
19536	100	48	1	0	21	12	5	15	1	0	1	stim006_stimuli_original_animals_fish_2.png	Y	0	0	0	93.6662249999936	93.8662282999721
19636	100	49	1	0	21	13	12	13	0	0	0	stim013_stimuli_original_vehicles_planes_1.png	U	f	94.2580465999781	1	94.066242699977	94.2662383999559
19736	100	50	1	0	21	14	0	14	0	0	0	stim001_stimuli_original_animals_birds_1.png	V	0	0	0	94.4662556999829	94.6662470999872
19836	100	51	1	0	21	15	8	2	0	0	0	stim009_stimuli_original_vehicles_boats_1.png	C	0	0	0	94.8662607999868	95.0662615000037
19936	100	52	1	0	21	16	10	5	0	0	0	stim011_stimuli_original_vehicles_boats_3.png	F	0	0	0	95.2662711999728	95.4662695999723
20036	100	53	1	0	21	17	7	12	0	0	0	stim008_stimuli_original_animals_fish_4.png	T	0	0	0	95.6662821999635	95.8662820999743
20136	100	54	1	0	21	18	12	7	0	0	0	stim013_stimuli_original_vehicles_planes_1.png	J	0	0	0	96.066294899967	96.2662939999718
20236	100	55	1	0	21	19	5	10	0	0	0	stim006_stimuli_original_animals_fish_2.png	Q	0	0	0	96.466306599963	96.6663046999602
20336	100	56	1	0	21	20	2	8	0	0	0	stim003_stimuli_original_animals_birds_3.png	K	0	0	0	96.8663150999928	97.0663312999532
20436	100	57	1	0	21	21	14	0	0	0	0	stim015_stimuli_original_vehicles_planes_3.png	A	0	0	0	97.2663246999728	97.4663238999783
20536	100	58	1	0	21	22	13	12	0	0	0	stim014_stimuli_original_vehicles_planes_2.png	T	0	0	0	97.6663367999718	97.8663340999628
20636	100	59	1	0	21	23	15	5	0	1	0	stim016_stimuli_original_vehicles_planes_4.png	F	0	0	0	98.0663454000023	98.2663459999603
20736	100	60	1	0	21	24	0	11	0	0	0	stim001_stimuli_original_animals_birds_1.png	R	0	0	0	98.466357199999	98.6663548999932
20836	100	61	1	0	21	25	6	5	0	1	0	stim007_stimuli_original_animals_fish_3.png	F	0	0	0	98.8663671999821	99.0663667999906
20936	100	62	1	0	21	26	4	3	0	0	0	stim005_stimuli_original_animals_fish_1.png	D	0	0	0	99.2663793999818	99.4663770999759
21036	100	63	1	0	21	27	13	1	1	0	0	stim014_stimuli_original_vehicles_planes_2.png	B	0	0	0	99.6663855999941	99.8663890999742
21136	100	64	1	0	21	28	1	6	0	0	0	stim002_stimuli_original_animals_birds_2.png	G	0	0	0	100.066414500005	100.266399699962
21236	100	65	1	0	21	29	13	9	1	0	1	stim014_stimuli_original_vehicles_planes_2.png	L	0	0	0	100.466410399997	100.666413399973
21336	100	66	1	0	21	30	3	15	0	0	0	stim004_stimuli_original_animals_birds_4.png	Y	f	101.058214299963	1	100.86642169999	101.066421299998
21436	100	67	1	0	21	31	10	2	0	0	0	stim011_stimuli_original_vehicles_boats_3.png	C	0	0	0	101.266432799981	101.466435799957
21536	100	68	1	0	21	32	8	14	0	0	0	stim009_stimuli_original_vehicles_boats_1.png	V	0	0	0	101.666441100009	101.866445199994
21636	100	69	1	0	21	33	9	13	0	0	0	stim010_stimuli_original_vehicles_boats_2.png	U	0	0	0	102.066454099957	102.266480399994
21736	100	70	1	0	21	34	11	5	0	0	0	stim012_stimuli_original_vehicles_boats_4.png	F	0	0	0	102.466465100006	102.666462399997
21836	100	71	1	0	21	35	7	4	0	0	0	stim008_stimuli_original_animals_fish_4.png	E	0	0	0	102.866475599993	103.066478899971
26786.25	100	72	2	1	47	0	15	6	0	0	0	stim016_stimuli_original_vehicles_planes_4.png	G	0	0	0	122.667021600006	122.867032199982
26886.25	100	73	2	1	47	1	9	2	0	0	0	stim010_stimuli_original_vehicles_boats_2.png	C	0	0	0	123.067041700007	123.26706079999
26986.25	100	74	2	1	47	2	0	12	0	0	0	stim001_stimuli_original_animals_birds_1.png	T	0	0	0	123.467055599962	123.667062099965
27086.25	100	75	2	1	47	3	5	7	0	0	0	stim006_stimuli_original_animals_fish_2.png	J	0	0	0	123.867067899962	124.067071700003
27186.25	100	76	2	1	47	4	11	8	0	0	0	stim012_stimuli_original_vehicles_boats_4.png	K	0	0	0	124.267078200006	124.467079899972
27286.25	100	77	2	1	47	5	3	13	0	0	0	stim004_stimuli_original_animals_birds_4.png	U	0	0	0	124.667089399998	124.867090799962
27386.25	100	78	2	1	47	6	2	1	0	0	0	stim003_stimuli_original_animals_birds_3.png	B	0	0	0	125.067086399999	125.267059699981
27486.25	100	79	2	1	47	7	15	15	1	0	0	stim016_stimuli_original_vehicles_planes_4.png	Y	0	0	0	125.467116999964	125.667112900002
27586.25	100	80	2	1	47	8	8	3	0	0	0	stim009_stimuli_original_vehicles_boats_1.png	D	0	0	0	125.8671263	126.067121399974
27686.25	100	81	2	1	47	9	15	13	1	1	0	stim016_stimuli_original_vehicles_planes_4.png	U	0	0	0	126.267133899964	126.467133599974
27786.25	100	82	2	1	47	10	4	9	0	0	0	stim005_stimuli_original_animals_fish_1.png	L	0	0	0	126.6671432	126.86714399996
27886.25	100	83	2	1	47	11	7	13	0	1	1	stim008_stimuli_original_animals_fish_4.png	U	0	0	0	127.067157899961	127.26715259999
27986.25	100	84	2	1	47	12	13	14	0	0	0	stim014_stimuli_original_vehicles_planes_2.png	V	f	127.658952399972	1	127.467165299982	127.667168599961
28086.25	100	85	2	1	47	13	10	4	0	0	0	stim011_stimuli_original_vehicles_boats_3.png	E	0	0	0	127.867186899995	128.067176699988
28186.25	100	86	2	1	47	14	14	0	0	0	0	stim015_stimuli_original_vehicles_planes_3.png	A	0	0	0	128.26718179998	128.467181499989
28286.25	100	87	2	1	47	15	6	10	0	0	0	stim007_stimuli_original_animals_fish_3.png	Q	0	0	0	128.667193899979	128.867190099962
28386.25	100	88	2	1	47	16	1	5	0	0	0	stim002_stimuli_original_animals_birds_2.png	F	0	0	0	129.067202799954	129.267198899994
28486.25	100	89	2	1	47	17	12	11	0	0	0	stim013_stimuli_original_vehicles_planes_1.png	R	0	0	0	129.467184399953	129.667179299984
28586.25	100	90	2	1	47	18	11	12	0	0	0	stim012_stimuli_original_vehicles_boats_4.png	T	0	0	0	129.867192999984	130.067195299955
28686.25	100	91	2	1	47	19	5	1	0	0	0	stim006_stimuli_original_animals_fish_2.png	B	0	0	0	130.267203899974	130.467205399997
28786.25	100	92	2	1	47	20	10	6	0	0	0	stim011_stimuli_original_vehicles_boats_3.png	G	0	0	0	130.667213299952	130.867213299964
28886.25	100	93	2	1	47	21	0	14	0	0	0	stim001_stimuli_original_animals_birds_1.png	V	0	0	0	131.067228399974	131.267224099953
28986.25	100	94	2	1	47	22	4	10	0	0	0	stim005_stimuli_original_animals_fish_1.png	Q	0	0	0	131.46723509999	131.667232499982
29086.25	100	95	2	1	47	23	14	13	0	0	0	stim015_stimuli_original_vehicles_planes_3.png	U	0	0	0	131.867244599969	132.067244399979
29186.25	100	96	2	1	47	24	13	7	1	0	0	stim014_stimuli_original_vehicles_planes_2.png	J	0	0	0	132.267256399966	132.46725809999
29286.25	100	97	2	1	47	25	9	4	0	0	0	stim010_stimuli_original_vehicles_boats_2.png	E	0	0	0	132.667268699966	132.867268599977
29386.25	100	98	2	1	47	26	13	15	1	1	0	stim014_stimuli_original_vehicles_planes_2.png	Y	0	0	0	133.067279599956	133.267277400009
29486.25	100	99	2	1	47	27	3	8	0	0	0	stim004_stimuli_original_animals_birds_4.png	K	0	0	0	133.467292799964	133.667288600001
29586.25	100	100	2	1	47	28	15	15	0	1	1	stim016_stimuli_original_vehicles_planes_4.png	Y	0	0	0	133.867302800005	134.067303699965
29686.25	100	101	2	1	47	29	1	2	0	0	0	stim002_stimuli_original_animals_birds_2.png	C	f	134.259874999989	1	134.267312199983	134.467311799992
29786.25	100	102	2	1	47	30	13	3	0	0	0	stim014_stimuli_original_vehicles_planes_2.png	D	0	0	0	134.667315799976	134.867321899976
29886.25	100	103	2	1	47	31	8	11	0	0	0	stim009_stimuli_original_vehicles_boats_1.png	R	0	0	0	135.067332999955	135.267334499978
29986.25	100	104	2	1	47	32	7	5	0	0	0	stim008_stimuli_original_animals_fish_4.png	F	0	0	0	135.467342499993	135.667338999978
30086.25	100	105	2	1	47	33	12	0	0	0	0	stim013_stimuli_original_vehicles_planes_1.png	A	0	0	0	135.867354899994	136.067353499995
30186.25	100	106	2	1	47	34	2	9	0	0	0	stim003_stimuli_original_animals_birds_3.png	L	0	0	0	136.267364899977	136.46736509999
30286.25	100	107	2	1	47	35	6	15	0	0	0	stim007_stimuli_original_animals_fish_3.png	Y	0	0	0	136.667375199962	136.867374899972
32011.25	100	108	3	0	3	0	9	5	0	0	0	stim010_stimuli_original_vehicles_boats_2.png	F	0	0	0	143.567566999991	143.767564499984
32111.25	100	109	3	0	3	1	12	13	0	0	0	stim013_stimuli_original_vehicles_planes_1.png	U	0	0	0	143.967576099967	144.16757489997
32211.25	100	110	3	0	3	2	3	7	0	0	0	stim004_stimuli_original_animals_birds_4.png	J	0	0	0	144.367587199959	144.567587599973
32311.25	100	111	3	0	3	3	15	14	0	0	0	stim016_stimuli_original_vehicles_planes_4.png	V	0	0	0	144.767596699996	144.967596700008
32411.25	100	112	3	0	3	4	8	8	0	0	0	stim009_stimuli_original_vehicles_boats_1.png	K	0	0	0	145.167608699994	145.367611499969
32511.25	100	113	3	0	3	5	6	4	0	0	0	stim007_stimuli_original_animals_fish_3.png	E	0	0	0	145.567620299989	145.767620099999
32611.25	100	114	3	0	3	6	2	3	0	0	0	stim003_stimuli_original_animals_birds_3.png	D	0	0	0	145.967630199972	146.16762849997
32711.25	100	115	3	0	3	7	7	6	0	1	0	stim008_stimuli_original_animals_fish_4.png	G	0	0	0	146.367639100004	146.567641299975
32811.25	100	116	3	0	3	8	12	10	1	0	0	stim013_stimuli_original_vehicles_planes_1.png	Q	0	0	0	146.76765200001	146.96765050001
32911.25	100	117	3	0	3	9	11	6	0	1	0	stim012_stimuli_original_vehicles_boats_4.png	G	0	0	0	147.167661099986	147.367662000004
33011.25	100	118	3	0	3	10	12	1	1	0	1	stim013_stimuli_original_vehicles_planes_1.png	B	0	0	0	147.567673099984	147.767670199974
33111.25	100	119	3	0	3	11	0	12	0	0	0	stim001_stimuli_original_animals_birds_1.png	T	0	0	0	147.967681199952	148.167682999978
33211.25	100	120	3	0	3	12	14	2	0	0	0	stim015_stimuli_original_vehicles_planes_3.png	C	0	0	0	148.367694299959	148.567691300006
33311.25	100	121	3	0	3	13	13	9	0	0	0	stim014_stimuli_original_vehicles_planes_2.png	L	0	0	0	148.767703899997	148.967703300004
33411.25	100	122	3	0	3	14	10	0	0	0	0	stim011_stimuli_original_vehicles_boats_3.png	A	0	0	0	149.167716099997	149.367714499997
33511.25	100	123	3	0	3	15	4	15	0	0	0	stim005_stimuli_original_animals_fish_1.png	Y	0	0	0	149.567727499991	149.767724399979
33611.25	100	124	3	0	3	16	1	6	0	0	0	stim002_stimuli_original_animals_birds_2.png	G	0	0	0	149.967736499966	150.167736999982
33711.25	100	125	3	0	3	17	5	11	0	0	0	stim006_stimuli_original_animals_fish_2.png	R	0	0	0	150.367746500007	150.56774639996
33811.25	100	126	3	0	3	18	11	5	0	0	0	stim012_stimuli_original_vehicles_boats_4.png	F	0	0	0	150.767756999994	150.967759599967
33911.25	100	127	3	0	3	19	6	1	0	0	0	stim007_stimuli_original_animals_fish_3.png	B	0	0	0	151.167768999992	151.367769200006
34011.25	100	128	3	0	3	20	15	4	0	0	0	stim016_stimuli_original_vehicles_planes_4.png	E	0	0	0	151.567779699981	151.767777199973
34111.25	100	129	3	0	3	21	0	10	0	0	0	stim001_stimuli_original_animals_birds_1.png	Q	0	0	0	151.967788199952	152.167793100001
34211.25	100	130	3	0	3	22	9	13	0	0	0	stim010_stimuli_original_vehicles_boats_2.png	U	0	0	0	152.367802899971	152.567801699974
34311.25	100	131	3	0	3	23	2	14	0	0	0	stim003_stimuli_original_animals_birds_3.png	V	0	0	0	152.76780999999	152.967809299997
34411.25	100	132	3	0	3	24	12	0	0	0	0	stim013_stimuli_original_vehicles_planes_1.png	A	0	0	0	153.167826299963	153.367822300002
34511.25	100	133	3	0	3	25	1	12	0	1	0	stim002_stimuli_original_animals_birds_2.png	T	0	0	0	153.56783309998	153.767837999971
34611.25	100	134	3	0	3	26	6	11	1	0	0	stim007_stimuli_original_animals_fish_3.png	R	0	0	0	153.967845199979	154.167857699969
34711.25	100	135	3	0	3	27	10	12	0	1	0	stim011_stimuli_original_vehicles_boats_3.png	T	0	0	0	154.367855099961	154.567853499961
34811.25	100	136	3	0	3	28	6	7	1	0	1	stim007_stimuli_original_animals_fish_3.png	J	0	0	0	154.767870199983	154.96787589998
34911.25	100	137	3	0	3	29	3	2	0	0	0	stim004_stimuli_original_animals_birds_4.png	C	f	155.359687399992	1	155.167887399963	155.367876500008
35011.25	100	138	3	0	3	30	4	6	0	0	0	stim005_stimuli_original_animals_fish_1.png	G	0	0	0	155.567888399994	155.767885999987
35111.25	100	139	3	0	3	31	8	8	0	0	0	stim009_stimuli_original_vehicles_boats_1.png	K	0	0	0	155.96789749997	156.167895099963
35211.5	100	140	3	0	3	32	14	15	0	0	0	stim015_stimuli_original_vehicles_planes_3.png	Y	0	0	0	156.367907499953	156.567906999961
35311.5	100	141	3	0	3	33	7	3	0	0	0	stim008_stimuli_original_animals_fish_4.png	D	0	0	0	156.767930099973	156.9679321
35411.5	100	142	3	0	3	34	13	12	0	0	0	stim014_stimuli_original_vehicles_planes_2.png	T	0	0	0	157.167953199998	157.367943899997
35511.5	100	143	3	0	3	35	5	9	0	0	0	stim006_stimuli_original_animals_fish_2.png	L	0	0	0	157.567951300007	157.767951099959
37707.25	100	144	4	1	41	0	0	7	0	0	0	stim001_stimuli_original_animals_birds_1.png	J	0	0	0	166.351537299983	166.551533199963
37807.25	100	145	4	1	41	1	1	1	0	0	0	stim002_stimuli_original_animals_birds_2.png	B	0	0	0	166.751544500003	166.951545399963
37907.25	100	146	4	1	41	2	6	15	0	0	0	stim007_stimuli_original_animals_fish_3.png	Y	0	0	0	167.151555699995	167.351556499954
38007.25	100	147	4	1	41	3	8	6	0	0	0	stim009_stimuli_original_vehicles_boats_1.png	G	0	0	0	167.551569200004	167.751569899963
38107.25	100	148	4	1	41	4	13	14	0	0	0	stim014_stimuli_original_vehicles_planes_2.png	V	0	0	0	167.951578799984	168.151576299977
38207.25	100	149	4	1	41	5	9	0	0	0	0	stim010_stimuli_original_vehicles_boats_2.png	A	0	0	0	168.351581299969	168.551588399976
38307.25	100	150	4	1	41	6	10	2	0	0	0	stim011_stimuli_original_vehicles_boats_3.png	C	0	0	0	168.751599899959	168.951597899955
38407.25	100	151	4	1	41	7	2	3	0	0	0	stim003_stimuli_original_animals_birds_3.png	D	0	0	0	169.151608099986	169.351609200006
38507.25	100	152	4	1	41	8	14	12	0	0	0	stim015_stimuli_original_vehicles_planes_3.png	T	0	0	0	169.551619799982	169.751619899995
38607.25	100	153	4	1	41	9	4	11	0	0	0	stim005_stimuli_original_animals_fish_1.png	R	0	0	0	169.951644099958	170.151629399974
38707.25	100	154	4	1	41	10	2	5	1	0	0	stim003_stimuli_original_animals_birds_3.png	F	0	0	0	170.35164389998	170.551642799983
38807.25	100	155	4	1	41	11	11	3	0	1	0	stim012_stimuli_original_vehicles_boats_4.png	D	0	0	0	170.751652999956	170.951667599962
38907.25	100	156	4	1	41	12	2	9	1	0	0	stim003_stimuli_original_animals_birds_3.png	L	0	0	0	171.151661999989	171.351660899993
39007.25	100	157	4	1	41	13	7	3	0	1	1	stim008_stimuli_original_animals_fish_4.png	D	0	0	0	171.551680399978	171.751672899991
39107.25	100	158	4	1	41	14	5	4	0	0	0	stim006_stimuli_original_animals_fish_2.png	E	0	0	0	171.951680900005	172.151682999975
39207.25	100	159	4	1	41	15	15	8	0	0	0	stim016_stimuli_original_vehicles_planes_4.png	K	f	172.34427219996	1	172.351691399992	172.551676700008
39307.25	100	160	4	1	41	16	3	13	0	0	0	stim004_stimuli_original_animals_birds_4.png	U	0	0	0	172.75169179996	172.951713899965
39407.25	100	161	4	1	41	17	12	10	0	0	0	stim013_stimuli_original_vehicles_planes_1.png	Q	0	0	0	173.151716199995	173.351716300007
39507.25	100	162	4	1	41	18	10	12	0	0	0	stim011_stimuli_original_vehicles_boats_3.png	T	0	0	0	173.551727199985	173.751727099996
39607.25	100	163	4	1	41	19	13	3	0	0	0	stim014_stimuli_original_vehicles_planes_2.png	D	0	0	0	173.95173739997	174.151741299953
39707.25	100	164	4	1	41	20	8	15	0	0	0	stim009_stimuli_original_vehicles_boats_1.png	Y	0	0	0	174.351750799979	174.551747699967
39807.25	100	165	4	1	41	21	4	5	0	0	0	stim005_stimuli_original_animals_fish_1.png	F	0	0	0	174.751762399974	174.951744099963
39907.25	100	166	4	1	41	22	3	7	1	0	0	stim004_stimuli_original_animals_birds_4.png	J	0	0	0	175.151775199978	175.351768499997
40007.25	100	167	4	1	41	23	9	2	0	1	0	stim010_stimuli_original_vehicles_boats_2.png	C	0	0	0	175.5517827	175.751780799998
40107.25	100	168	4	1	41	24	3	11	1	0	0	stim004_stimuli_original_animals_birds_4.png	R	0	0	0	175.951795500005	176.151785800001
40207.25	100	169	4	1	41	25	5	2	0	1	1	stim006_stimuli_original_animals_fish_2.png	C	0	0	0	176.351806299994	176.551799899957
40307.25	100	170	4	1	41	26	11	4	0	0	0	stim012_stimuli_original_vehicles_boats_4.png	E	0	0	0	176.75181539997	176.951810800005
40407.25	100	171	4	1	41	27	12	14	0	0	0	stim013_stimuli_original_vehicles_planes_1.png	V	0	0	0	177.151824600005	177.351821299992
40507.25	100	172	4	1	41	28	3	2	0	0	0	stim004_stimuli_original_animals_birds_4.png	C	f	177.743644799979	1	177.551836400002	177.75183590001
40607.25	100	173	4	1	41	29	2	10	0	0	0	stim003_stimuli_original_animals_birds_3.png	Q	0	0	0	177.951845599979	178.151860699989
40707.25	100	174	4	1	41	30	0	9	0	0	0	stim001_stimuli_original_animals_birds_1.png	L	0	0	0	178.351841199968	178.551856299979
40807.25	100	175	4	1	41	31	14	13	0	0	0	stim015_stimuli_original_vehicles_planes_3.png	U	0	0	0	178.751874899957	178.951873899961
40907.25	100	176	4	1	41	32	6	8	0	0	0	stim007_stimuli_original_animals_fish_3.png	K	0	0	0	179.151876799995	179.351875599998
41007.25	100	177	4	1	41	33	15	6	0	0	0	stim016_stimuli_original_vehicles_planes_4.png	G	0	0	0	179.551886799978	179.751887099992
41107.25	100	178	4	1	41	34	1	1	0	0	0	stim002_stimuli_original_animals_birds_2.png	B	0	0	0	179.951899899985	180.151898199983
41207.25	100	179	4	1	41	35	7	0	0	0	0	stim008_stimuli_original_animals_fish_4.png	A	0	0	0	180.351895699976	180.551908499969
43220	100	180	5	0	31	0	5	8	0	0	0	stim006_stimuli_original_animals_fish_2.png	K	0	0	0	188.402100000007	188.602097800002
43320	100	181	5	0	31	1	8	4	0	0	0	stim009_stimuli_original_vehicles_boats_1.png	E	0	0	0	188.802139899984	189.002109599998
43420	100	182	5	0	31	2	11	9	0	0	0	stim012_stimuli_original_vehicles_boats_4.png	L	0	0	0	189.202121299983	189.402134399978
43520	100	183	5	0	31	3	0	1	0	0	0	stim001_stimuli_original_animals_birds_1.png	B	0	0	0	189.602131599968	189.802144499961
43620	100	184	5	0	31	4	13	13	0	0	0	stim014_stimuli_original_vehicles_planes_2.png	U	0	0	0	190.002142199955	190.202144099982
43720	100	185	5	0	31	5	6	14	0	1	0	stim007_stimuli_original_animals_fish_3.png	V	0	0	0	190.402153400006	190.602151400002
43820	100	186	5	0	31	6	14	6	0	0	0	stim015_stimuli_original_vehicles_planes_3.png	G	0	0	0	190.802162799984	191.002166099963
43920	100	187	5	0	31	7	10	14	1	1	0	stim011_stimuli_original_vehicles_boats_3.png	V	0	0	0	191.202175499988	191.402196599985
44020	100	188	5	0	31	8	3	2	0	0	0	stim004_stimuli_original_animals_birds_4.png	C	0	0	0	191.602188999997	191.802198099962
44120	100	189	5	0	31	9	10	11	1	0	1	stim011_stimuli_original_vehicles_boats_3.png	R	0	0	0	192.002212199965	192.202200200001
44220	100	190	5	0	31	10	2	10	0	0	0	stim003_stimuli_original_animals_birds_3.png	Q	0	0	0	192.40220740001	192.60220590001
44320	100	191	5	0	31	11	7	15	0	0	0	stim008_stimuli_original_animals_fish_4.png	Y	0	0	0	192.802218500001	193.002219399961
44420	100	192	5	0	31	12	12	0	0	0	0	stim013_stimuli_original_vehicles_planes_1.png	A	0	0	0	193.202232799958	193.402227699989
44520	100	193	5	0	31	13	15	7	0	0	0	stim016_stimuli_original_vehicles_planes_4.png	J	0	0	0	193.602237099956	193.802238099976
44620	100	194	5	0	31	14	4	12	0	0	0	stim005_stimuli_original_animals_fish_1.png	T	0	0	0	194.0022627	194.202250099974
44720	100	195	5	0	31	15	9	3	0	0	0	stim010_stimuli_original_vehicles_boats_2.png	D	0	0	0	194.402273399988	194.602271299984
44820	100	196	5	0	31	16	1	14	0	0	0	stim002_stimuli_original_animals_birds_2.png	V	0	0	0	194.802284099977	195.002283399983
44920	100	197	5	0	31	17	10	5	0	0	0	stim011_stimuli_original_vehicles_boats_3.png	F	0	0	0	195.202295999974	195.402292799961
45020	100	198	5	0	31	18	5	10	0	0	0	stim006_stimuli_original_animals_fish_2.png	Q	0	0	0	195.602304200002	195.802303100005
45120	100	199	5	0	31	19	14	1	0	0	0	stim015_stimuli_original_vehicles_planes_3.png	B	0	0	0	196.002315799997	196.202339899959
45220	100	200	5	0	31	20	3	9	0	0	0	stim004_stimuli_original_animals_birds_4.png	L	0	0	0	196.402326399984	196.602324699983
45320	100	201	5	0	31	21	12	4	0	0	0	stim013_stimuli_original_vehicles_planes_1.png	E	0	0	0	196.802350799961	197.002336199977
45420	100	202	5	0	31	22	7	15	0	0	0	stim008_stimuli_original_animals_fish_4.png	Y	0	0	0	197.202346899954	197.402349499986
45520	100	203	5	0	31	23	0	12	0	0	0	stim001_stimuli_original_animals_birds_1.png	T	0	0	0	197.602357099997	197.802357000008
45620	100	204	5	0	31	24	15	7	0	0	0	stim016_stimuli_original_vehicles_planes_4.png	J	0	0	0	198.002368599991	198.20236950001
45720	100	205	5	0	31	25	10	2	0	0	0	stim011_stimuli_original_vehicles_boats_3.png	C	0	0	0	198.402382100001	198.602375799965
45820	100	206	5	0	31	26	11	10	0	1	0	stim012_stimuli_original_vehicles_boats_4.png	Q	0	0	0	198.802417300001	199.002388499968
45920	100	207	5	0	31	27	2	3	0	0	0	stim003_stimuli_original_animals_birds_3.png	D	0	0	0	199.202400599956	199.402408199967
46020	100	208	5	0	31	28	14	10	1	1	0	stim015_stimuli_original_vehicles_planes_3.png	Q	0	0	0	199.602412399952	199.802413299971
46120	100	209	5	0	31	29	6	14	0	0	0	stim007_stimuli_original_animals_fish_3.png	V	0	0	0	200.002410099958	200.202420899994
46220	100	210	5	0	31	30	14	6	1	0	1	stim015_stimuli_original_vehicles_planes_3.png	G	0	0	0	200.402432299976	200.602430899977
46320	100	211	5	0	31	31	13	13	0	0	0	stim014_stimuli_original_vehicles_planes_2.png	U	0	0	0	200.802445299982	201.002442799974
46420	100	212	5	0	31	32	1	0	0	0	0	stim002_stimuli_original_animals_birds_2.png	A	0	0	0	201.202453200007	201.402469599969
46520	100	213	5	0	31	33	9	11	0	0	0	stim010_stimuli_original_vehicles_boats_2.png	R	f	201.595070099982	1	201.602463499992	201.802463300002
46620	100	214	5	0	31	34	4	8	0	0	0	stim005_stimuli_original_animals_fish_1.png	K	0	0	0	202.002486499958	202.202477099956
46720	100	215	5	0	31	35	8	5	0	0	0	stim009_stimuli_original_vehicles_boats_1.png	F	0	0	0	202.402484299964	202.602483599971
49149.25	100	216	6	1	20	0	12	11	0	0	0	stim013_stimuli_original_vehicles_planes_1.png	R	0	0	0	212.119432799984	212.319428499963
49249.25	100	217	6	1	20	1	1	13	0	0	0	stim002_stimuli_original_animals_birds_2.png	U	0	0	0	212.519440000004	212.71943930001
49349.25	100	218	6	1	20	2	15	2	0	0	0	stim016_stimuli_original_vehicles_planes_4.png	C	0	0	0	212.919448999979	213.119448599988
49449.25	100	219	6	1	20	3	8	4	0	0	0	stim009_stimuli_original_vehicles_boats_1.png	E	0	0	0	213.319459599967	213.519459099974
49549.25	100	220	6	1	20	4	5	9	0	0	0	stim006_stimuli_original_animals_fish_2.png	L	0	0	0	213.719469899952	213.91946939996
49649.25	100	221	6	1	20	5	6	5	0	0	0	stim007_stimuli_original_animals_fish_3.png	F	0	0	0	214.119479999994	214.319480699953
49749.25	100	222	6	1	20	6	7	8	0	0	0	stim008_stimuli_original_animals_fish_4.png	K	0	0	0	214.519477199996	214.719491399999
49849.25	100	223	6	1	20	7	14	3	0	0	0	stim015_stimuli_original_vehicles_planes_3.png	D	0	0	0	214.919507299957	215.119511299999
49949.25	100	224	6	1	20	8	6	10	1	0	0	stim007_stimuli_original_animals_fish_3.png	Q	0	0	0	215.319515799987	215.519514399988
50049.25	100	225	6	1	20	9	2	14	0	0	0	stim003_stimuli_original_animals_birds_3.png	V	0	0	0	215.719526799978	215.91952429997
50149.25	100	226	6	1	20	10	6	12	1	0	0	stim007_stimuli_original_animals_fish_3.png	T	0	0	0	216.119541599997	216.319536799972
50249.25	100	227	6	1	20	11	11	9	0	1	0	stim012_stimuli_original_vehicles_boats_4.png	L	0	0	0	216.519544999988	216.719523100008
50349.25	100	228	6	1	20	12	3	0	0	0	0	stim004_stimuli_original_animals_birds_4.png	A	0	0	0	216.919560000009	217.119562599983
50449.25	100	229	6	1	20	13	10	9	0	1	1	stim011_stimuli_original_vehicles_boats_3.png	L	0	0	0	217.319577199989	217.519572199963
50549.25	100	230	6	1	20	14	13	15	0	0	0	stim014_stimuli_original_vehicles_planes_2.png	Y	0	0	0	217.719580499979	217.919577299966
50649.25	100	231	6	1	20	15	0	6	0	0	0	stim001_stimuli_original_animals_birds_1.png	G	0	0	0	218.119587399997	218.319594100001
50749.25	100	232	6	1	20	16	4	1	0	0	0	stim005_stimuli_original_animals_fish_1.png	B	0	0	0	218.519598199986	218.719598800002
50849.25	100	233	6	1	20	17	9	7	0	0	0	stim010_stimuli_original_vehicles_boats_2.png	J	0	0	0	218.919614599959	219.119607999979
50949.25	100	234	6	1	20	18	7	9	0	0	0	stim008_stimuli_original_animals_fish_4.png	L	0	0	0	219.319608199992	219.519621199986
51049.25	100	235	6	1	20	19	1	4	0	0	0	stim002_stimuli_original_animals_birds_2.png	E	0	0	0	219.719630999956	219.919627299998
51149.25	100	236	6	1	20	20	6	0	0	0	0	stim007_stimuli_original_animals_fish_3.png	A	0	0	0	220.119647399988	220.319641899958
51249.25	100	237	6	1	20	21	15	13	0	0	0	stim016_stimuli_original_vehicles_planes_4.png	U	0	0	0	220.519654899952	220.719651899999
51349.25	100	238	6	1	20	22	9	10	1	0	0	stim010_stimuli_original_vehicles_boats_2.png	Q	0	0	0	220.919664999994	221.119666999963
51449.25	100	239	6	1	20	23	0	3	0	0	0	stim001_stimuli_original_animals_birds_1.png	D	0	0	0	221.319678100001	221.519674799987
51549.25	100	240	6	1	20	24	9	11	1	0	0	stim010_stimuli_original_vehicles_boats_2.png	R	0	0	0	221.71968499996	221.919691499963
51649.25	100	241	6	1	20	25	12	6	0	1	0	stim013_stimuli_original_vehicles_planes_1.png	G	0	0	0	222.119697099959	222.319696099963
51749.25	100	242	6	1	20	26	14	2	0	0	0	stim015_stimuli_original_vehicles_planes_3.png	C	0	0	0	222.519717999967	222.719707399956
51849.25	100	243	6	1	20	27	10	6	0	1	1	stim011_stimuli_original_vehicles_boats_3.png	G	0	0	0	222.919717099983	223.119722999982
51949.25	100	244	6	1	20	28	3	14	0	0	0	stim004_stimuli_original_animals_birds_4.png	V	f	223.511513500009	1	223.319727199967	223.519709199958
52049.25	100	245	6	1	20	29	8	7	0	0	0	stim009_stimuli_original_vehicles_boats_1.png	J	0	0	0	223.719738599961	223.919740399986
52149.25	100	246	6	1	20	30	5	6	0	0	0	stim006_stimuli_original_animals_fish_2.png	G	0	0	0	224.119728399965	224.319747900008
52249.25	100	247	6	1	20	31	9	5	0	0	0	stim010_stimuli_original_vehicles_boats_2.png	F	0	0	0	224.519768400001	224.719745999959
52349.25	100	248	6	1	20	32	4	8	0	0	0	stim005_stimuli_original_animals_fish_1.png	K	0	0	0	224.919770099979	225.119756700005
52449.25	100	249	6	1	20	33	2	15	0	0	0	stim003_stimuli_original_animals_birds_3.png	Y	0	0	0	225.319789499976	225.519810699974
52549.25	100	250	6	1	20	34	13	1	0	0	0	stim014_stimuli_original_vehicles_planes_2.png	B	0	0	0	225.719791299955	225.919791599968
52649.25	100	251	6	1	20	35	11	12	0	0	0	stim012_stimuli_original_vehicles_boats_4.png	T	0	0	0	226.119803000009	226.319803299964
55841	100	252	7	0	15	0	10	5	0	0	0	stim011_stimuli_original_vehicles_boats_3.png	F	0	0	0	238.886800099979	239.086787399952
55941	100	253	7	0	15	1	9	10	0	0	0	stim010_stimuli_original_vehicles_boats_2.png	Q	0	0	0	239.286812799983	239.486813099997
56041	100	254	7	0	15	2	15	6	0	0	0	stim016_stimuli_original_vehicles_planes_4.png	G	0	0	0	239.6868196	239.886818400002
56141	100	255	7	0	15	3	0	11	0	0	0	stim001_stimuli_original_animals_birds_1.png	R	0	0	0	240.086818499956	240.286819699977
56241	100	256	7	0	15	4	1	4	0	0	0	stim002_stimuli_original_animals_birds_2.png	E	0	0	0	240.486830499955	240.686826999998
56341	100	257	7	0	15	5	7	2	0	1	0	stim008_stimuli_original_animals_fish_4.png	C	0	0	0	240.886861799983	241.086839199997
56441	100	258	7	0	15	6	4	3	0	0	0	stim005_stimuli_original_animals_fish_1.png	D	0	0	0	241.286850299977	241.486851499998
56541	100	259	7	0	15	7	2	2	0	1	0	stim003_stimuli_original_animals_birds_3.png	C	0	0	0	241.686861499969	241.886872800009
56641	100	260	7	0	15	8	8	7	0	0	0	stim009_stimuli_original_vehicles_boats_1.png	J	0	0	0	242.086871899955	242.286871599965
56741	100	261	7	0	15	9	7	14	1	0	0	stim008_stimuli_original_animals_fish_4.png	V	0	0	0	242.486882900004	242.686882399954
56841	100	262	7	0	15	10	12	2	0	0	0	stim013_stimuli_original_vehicles_planes_1.png	C	0	0	0	242.886895700009	243.086893900007
56941	100	263	7	0	15	11	7	0	1	0	1	stim008_stimuli_original_animals_fish_4.png	A	0	0	0	243.286906099995	243.486930999963
57041	100	264	7	0	15	12	11	15	0	0	0	stim012_stimuli_original_vehicles_boats_4.png	Y	0	0	0	243.686913599959	243.886914599978
57141	100	265	7	0	15	13	13	8	0	0	0	stim014_stimuli_original_vehicles_planes_2.png	K	0	0	0	244.086956499959	244.286924999964
57241	100	266	7	0	15	14	14	12	0	0	0	stim015_stimuli_original_vehicles_planes_3.png	T	0	0	0	244.486935699999	244.686936199956
57341	100	267	7	0	15	15	5	9	0	0	0	stim006_stimuli_original_animals_fish_2.png	L	0	0	0	244.886947899999	245.086947600008
57441	100	268	7	0	15	16	3	1	0	0	0	stim004_stimuli_original_animals_birds_4.png	B	0	0	0	245.286958899989	245.48695749999
57541	100	269	7	0	15	17	6	13	0	0	0	stim007_stimuli_original_animals_fish_3.png	U	0	0	0	245.686967699963	245.886968299979
57641	100	270	7	0	15	18	13	6	0	0	0	stim014_stimuli_original_vehicles_planes_2.png	G	0	0	0	246.087005299982	246.286978699965
57741	100	271	7	0	15	19	1	3	0	0	0	stim002_stimuli_original_animals_birds_2.png	D	0	0	0	246.4869893	246.686996899953
57841	100	272	7	0	15	20	9	5	0	0	0	stim010_stimuli_original_vehicles_boats_2.png	F	0	0	0	246.887005399971	247.087000400003
57941	100	273	7	0	15	21	12	14	0	0	0	stim013_stimuli_original_vehicles_planes_1.png	V	0	0	0	247.287010199972	247.487010799989
58041	100	274	7	0	15	22	8	13	0	0	0	stim009_stimuli_original_vehicles_boats_1.png	U	0	0	0	247.687047199986	247.887021099974
58141	100	275	7	0	15	23	15	11	0	0	0	stim016_stimuli_original_vehicles_planes_4.png	R	0	0	0	248.087036399986	248.287050499988
58241	100	276	7	0	15	24	0	7	0	1	0	stim001_stimuli_original_animals_birds_1.png	J	0	0	0	248.487046699971	248.687054399983
58341	100	277	7	0	15	25	2	12	0	0	0	stim003_stimuli_original_animals_birds_3.png	T	0	0	0	248.887054299994	249.087053099996
58441	100	278	7	0	15	26	14	7	0	1	0	stim015_stimuli_original_vehicles_planes_3.png	J	0	0	0	249.28707109997	249.487067999959
58541	100	279	7	0	15	27	7	8	0	0	0	stim008_stimuli_original_animals_fish_4.png	K	0	0	0	249.687074599962	249.887076499988
58641	100	280	7	0	15	28	2	2	1	0	0	stim003_stimuli_original_animals_birds_3.png	C	0	0	0	250.087086999964	250.287086099968
58741	100	281	7	0	15	29	3	4	0	0	0	stim004_stimuli_original_animals_birds_4.png	E	0	0	0	250.487097000005	250.687097399961
58841	100	282	7	0	15	30	2	7	1	0	1	stim003_stimuli_original_animals_birds_3.png	J	0	0	0	250.887126799964	251.087107200001
58941	100	283	7	0	15	31	4	1	0	0	0	stim005_stimuli_original_animals_fish_1.png	B	d	251.279719299986	1	251.287130699959	251.487135500007
59041	100	284	7	0	15	32	11	0	0	0	0	stim012_stimuli_original_vehicles_boats_4.png	A	0	0	0	251.687129199971	251.887141499959
59141	100	285	7	0	15	33	6	15	0	0	0	stim007_stimuli_original_animals_fish_3.png	Y	0	0	0	252.087139299954	252.28714109998
59241	100	286	7	0	15	34	10	9	0	0	0	stim011_stimuli_original_vehicles_boats_3.png	L	0	0	0	252.487151499954	252.687150599959
59341	100	287	7	0	15	35	5	10	0	0	0	stim006_stimuli_original_animals_fish_2.png	Q	0	0	0	252.887160599988	253.087161700008
61499.5	100	288	8	1	14	0	9	2	0	0	0	stim010_stimuli_original_vehicles_boats_2.png	C	0	0	0	261.520738299994	261.720724199957
61599.5	100	289	8	1	14	1	8	5	0	0	0	stim009_stimuli_original_vehicles_boats_1.png	F	0	0	0	261.920735799999	262.120737599966
61699.5	100	290	8	1	14	2	11	4	0	0	0	stim012_stimuli_original_vehicles_boats_4.png	E	0	0	0	262.320748600003	262.520747800008
61799.5	100	291	8	1	14	3	1	0	0	0	0	stim002_stimuli_original_animals_birds_2.png	A	0	0	0	262.720757499977	262.920757899992
61899.5	100	292	8	1	14	4	14	12	0	0	0	stim015_stimuli_original_vehicles_planes_3.png	T	0	0	0	263.120771299989	263.32076849998
61999.5	100	293	8	1	14	5	13	13	0	0	0	stim014_stimuli_original_vehicles_planes_2.png	U	0	0	0	263.52078099997	263.72077939997
62099.5	100	294	8	1	14	6	6	10	0	0	0	stim007_stimuli_original_animals_fish_3.png	Q	0	0	0	263.920796999999	264.120792199974
62199.5	100	295	8	1	14	7	12	8	0	1	0	stim013_stimuli_original_vehicles_planes_1.png	K	0	0	0	264.32080300001	264.520801699953
62299.5	100	296	8	1	14	8	4	15	0	0	0	stim005_stimuli_original_animals_fish_1.png	Y	0	0	0	264.720811699983	264.920813400007
62399.5	100	297	8	1	14	9	2	8	0	1	1	stim003_stimuli_original_animals_birds_3.png	K	0	0	0	265.120825299993	265.320823199989
62499.5	100	298	8	1	14	10	11	7	1	0	0	stim012_stimuli_original_vehicles_boats_4.png	J	f	265.712628799956	1	265.520834599971	265.720834399981
62599.5	100	299	8	1	14	11	3	1	0	0	0	stim004_stimuli_original_animals_birds_4.png	B	0	0	0	265.920847099973	266.120843799959
62699.5	100	300	8	1	14	12	11	6	1	0	0	stim012_stimuli_original_vehicles_boats_4.png	G	0	0	0	266.320856799954	266.520854300004
62799.5	100	301	8	1	14	13	10	8	0	0	0	stim011_stimuli_original_vehicles_boats_3.png	K	0	0	0	266.72086609999	266.920867299952
62899.5	100	302	8	1	14	14	15	3	0	0	0	stim016_stimuli_original_vehicles_planes_4.png	D	0	0	0	267.120877599984	267.320877299993
62999.5	100	303	8	1	14	15	7	14	0	0	0	stim008_stimuli_original_animals_fish_4.png	V	0	0	0	267.520892200002	267.72088649997
63099.5	100	304	8	1	14	16	5	11	0	0	0	stim006_stimuli_original_animals_fish_2.png	R	0	0	0	267.920902099984	268.120900699985
63199.5	100	305	8	1	14	17	0	9	0	0	0	stim001_stimuli_original_animals_birds_1.png	L	0	0	0	268.320909500006	268.520908300008
63299.5	100	306	8	1	14	18	9	0	0	0	0	stim010_stimuli_original_vehicles_boats_2.png	A	0	0	0	268.720924999972	268.920920600009
63399.5	100	307	8	1	14	19	11	5	0	0	0	stim012_stimuli_original_vehicles_boats_4.png	F	0	0	0	269.120931099984	269.320929699985
63499.5	100	308	8	1	14	20	14	7	0	0	0	stim015_stimuli_original_vehicles_planes_3.png	J	0	0	0	269.520940799965	269.720941399981
63599.5	100	309	8	1	14	21	3	15	0	0	0	stim004_stimuli_original_animals_birds_4.png	Y	0	0	0	269.920951899956	270.120952899975
63699.5	100	310	8	1	14	22	8	10	0	0	0	stim009_stimuli_original_vehicles_boats_1.png	Q	0	0	0	270.320964999963	270.520962299954
63799.5	100	311	8	1	14	23	6	11	0	1	0	stim007_stimuli_original_animals_fish_3.png	R	0	0	0	270.720972999989	270.920974299952
63899.5	100	312	8	1	14	24	1	3	0	0	0	stim002_stimuli_original_animals_birds_2.png	D	0	0	0	271.120984299982	271.320984599995
63999.5	100	313	8	1	14	25	7	11	0	1	1	stim008_stimuli_original_animals_fish_4.png	R	0	0	0	271.520996599982	271.720994999981
64099.5	100	314	8	1	14	26	8	2	1	0	0	stim009_stimuli_original_vehicles_boats_1.png	C	f	272.112797099981	1	271.921006799967	272.12100569997
64199.5	100	315	8	1	14	27	15	4	0	0	0	stim016_stimuli_original_vehicles_planes_4.png	E	0	0	0	272.321016900009	272.521018099971
64299.5	100	316	8	1	14	28	8	12	1	0	0	stim009_stimuli_original_vehicles_boats_1.png	T	0	0	0	272.721026799991	272.921024899988
64399.5	100	317	8	1	14	29	10	6	0	0	0	stim011_stimuli_original_vehicles_boats_3.png	G	0	0	0	273.121039999998	273.321039000002
64499.5	100	318	8	1	14	30	13	13	0	0	0	stim014_stimuli_original_vehicles_planes_2.png	U	0	0	0	273.521054099954	273.721048599982
64599.5	100	319	8	1	14	31	12	14	0	0	0	stim013_stimuli_original_vehicles_planes_1.png	V	0	0	0	273.921058499953	274.121079700009
64699.5	100	320	8	1	14	32	0	1	0	0	0	stim001_stimuli_original_animals_birds_1.png	B	0	0	0	274.321074699983	274.521070899966
64799.5	100	321	8	1	14	33	4	11	0	0	0	stim005_stimuli_original_animals_fish_1.png	R	0	0	0	274.721079599985	274.921079899999
64899.5	100	322	8	1	14	34	5	8	0	0	0	stim006_stimuli_original_animals_fish_2.png	K	0	0	0	275.121095699957	275.321105599985
64999.5	100	323	8	1	14	35	2	9	0	0	0	stim003_stimuli_original_animals_birds_3.png	L	0	0	0	275.521102399973	275.721102899988
67212.25	100	324	9	0	43	0	4	0	0	0	0	stim005_stimuli_original_animals_fish_1.png	A	0	0	0	284.371363399958	284.571340099967
67312.25	100	325	9	0	43	1	10	15	0	0	0	stim011_stimuli_original_vehicles_boats_3.png	Y	0	0	0	284.771350199997	284.971351699962
67412.25	100	326	9	0	43	2	12	12	0	0	0	stim013_stimuli_original_vehicles_planes_1.png	T	0	0	0	285.171363100002	285.371363499959
67512.25	100	327	9	0	43	3	8	14	0	0	0	stim009_stimuli_original_vehicles_boats_1.png	V	0	0	0	285.57137239998	285.771369299968
67612.25	100	328	9	0	43	4	15	13	1	0	0	stim016_stimuli_original_vehicles_planes_4.png	U	0	0	0	285.971382699965	286.171384999994
67712.25	100	329	9	0	43	5	5	10	0	0	0	stim006_stimuli_original_animals_fish_2.png	Q	0	0	0	286.371406899998	286.57139279996
67812.25	100	330	9	0	43	6	15	7	1	0	1	stim016_stimuli_original_vehicles_planes_4.png	J	0	0	0	286.77142830001	286.9714179
67912.25	100	331	9	0	43	7	11	1	0	1	0	stim012_stimuli_original_vehicles_boats_4.png	B	0	0	0	287.171417799953	287.371415600006
68012.25	100	332	9	0	43	8	2	6	0	0	0	stim003_stimuli_original_animals_birds_3.png	G	0	0	0	287.571425799979	287.771423499973
68112.25	100	333	9	0	43	9	0	1	0	1	0	stim001_stimuli_original_animals_birds_1.png	B	0	0	0	287.971436399966	288.17143789999
68212.25	100	334	9	0	43	10	14	3	0	0	0	stim015_stimuli_original_vehicles_planes_3.png	D	0	0	0	288.37144779996	288.571469499962
68312.25	100	335	9	0	43	11	1	9	0	0	0	stim002_stimuli_original_animals_birds_2.png	L	0	0	0	288.771457499999	288.971470999997
68412.25	100	336	9	0	43	12	3	2	0	0	0	stim004_stimuli_original_animals_birds_4.png	C	0	0	0	289.171468699991	289.371468400001
68512.25	100	337	9	0	43	13	6	8	0	0	0	stim007_stimuli_original_animals_fish_3.png	K	0	0	0	289.571483999956	289.771478499984
68612.25	100	338	9	0	43	14	9	4	0	0	0	stim010_stimuli_original_vehicles_boats_2.png	E	0	0	0	289.971490699972	290.171490699984
68712.25	100	339	9	0	43	15	13	11	0	0	0	stim014_stimuli_original_vehicles_planes_2.png	R	0	0	0	290.371514900005	290.571513400006
68812.25	100	340	9	0	43	16	15	1	0	0	0	stim016_stimuli_original_vehicles_planes_4.png	B	0	0	0	290.771524199983	290.97151589999
68912.25	100	341	9	0	43	17	7	5	0	0	0	stim008_stimuli_original_animals_fish_4.png	F	0	0	0	291.171565899975	291.371535899991
69012.25	100	342	9	0	43	18	5	7	0	0	0	stim006_stimuli_original_animals_fish_2.png	J	0	0	0	291.571569799969	291.771560499968
69112.25	100	343	9	0	43	19	1	15	0	0	0	stim002_stimuli_original_animals_birds_2.png	Y	0	0	0	291.971554399992	292.171554800007
69212.25	100	344	9	0	43	20	11	13	0	0	0	stim012_stimuli_original_vehicles_boats_4.png	U	0	0	0	292.371567399998	292.571567599953
69312.25	100	345	9	0	43	21	4	9	0	0	0	stim005_stimuli_original_animals_fish_1.png	L	0	0	0	292.771575499966	292.971577999997
69412.25	100	346	9	0	43	22	8	6	0	0	0	stim009_stimuli_original_vehicles_boats_1.png	G	0	0	0	293.171586999961	293.371589899994
69512.25	100	347	9	0	43	23	2	3	0	0	0	stim003_stimuli_original_animals_birds_3.png	D	0	0	0	293.571596499998	293.771611700009
69612.25	100	348	9	0	43	24	9	1	0	0	0	stim010_stimuli_original_vehicles_boats_2.png	B	0	0	0	293.971612299967	294.171608300006
69712.25	100	349	9	0	43	25	3	14	0	0	0	stim004_stimuli_original_animals_birds_4.png	V	0	0	0	294.371632199967	294.571617899986
69812.25	100	350	9	0	43	26	1	0	1	0	0	stim002_stimuli_original_animals_birds_2.png	A	0	0	0	294.771628299961	294.9716319
69912.25	100	351	9	0	43	27	6	2	0	0	0	stim007_stimuli_original_animals_fish_3.png	C	0	0	0	295.171639999957	295.371639699966
70012.25	100	352	9	0	43	28	1	11	1	0	1	stim002_stimuli_original_animals_birds_2.png	R	0	0	0	295.57165259996	295.771650499955
70112.25	100	353	9	0	43	29	7	15	0	1	0	stim008_stimuli_original_animals_fish_4.png	Y	f	296.163454199967	1	295.971661999996	296.171663199959
70212.25	100	354	9	0	43	30	10	5	0	0	0	stim011_stimuli_original_vehicles_boats_3.png	F	0	0	0	296.371687099978	296.571673400002
70312.25	100	355	9	0	43	31	13	15	0	1	0	stim014_stimuli_original_vehicles_planes_2.png	Y	0	0	0	296.771661299979	296.97170309996
70412.25	100	356	9	0	43	32	14	8	0	0	0	stim015_stimuli_original_vehicles_planes_3.png	K	0	0	0	297.171714600001	297.371716499969
70512.25	100	357	9	0	43	33	12	12	0	0	0	stim013_stimuli_original_vehicles_planes_1.png	T	0	0	0	297.571725899994	297.771724199993
70612.25	100	358	9	0	43	34	15	10	0	0	0	stim016_stimuli_original_vehicles_planes_4.png	Q	0	0	0	297.971733599959	298.171738000005
70712.25	100	359	9	0	43	35	0	4	0	0	0	stim001_stimuli_original_animals_birds_1.png	E	0	0	0	298.371746399964	298.571717199986
72854	100	360	10	1	8	0	10	9	0	0	0	stim011_stimuli_original_vehicles_boats_3.png	L	0	0	0	306.938645499991	307.138638200006
72954	100	361	10	1	8	1	2	8	0	0	0	stim003_stimuli_original_animals_birds_3.png	K	0	0	0	307.338652799954	307.538648299989
73054	100	362	10	1	8	2	3	7	0	0	0	stim004_stimuli_original_animals_birds_4.png	J	0	0	0	307.738658499962	307.938660799991
73154	100	363	10	1	8	3	5	3	0	0	0	stim006_stimuli_original_animals_fish_2.png	D	0	0	0	308.138655699964	308.338670999976
73254	100	364	10	1	8	4	12	13	0	0	0	stim013_stimuli_original_vehicles_planes_1.png	U	0	0	0	308.538678399986	308.738679400005
73354	100	365	10	1	8	5	7	6	1	0	0	stim008_stimuli_original_animals_fish_4.png	G	0	0	0	308.938693500008	309.138692399953
73454	100	366	10	1	8	6	8	14	0	0	0	stim009_stimuli_original_vehicles_boats_1.png	V	0	0	0	309.338726499991	309.538705899962
73554	100	367	10	1	8	7	7	0	1	0	0	stim008_stimuli_original_animals_fish_4.png	A	0	0	0	309.738712099963	309.938712999981
73654	100	368	10	1	8	8	15	2	0	0	0	stim016_stimuli_original_vehicles_planes_4.png	C	0	0	0	310.138724099961	310.33872629999
73754	100	369	10	1	8	9	11	11	0	0	0	stim012_stimuli_original_vehicles_boats_4.png	R	0	0	0	310.538716799987	310.738732900005
73854	100	370	10	1	8	10	1	12	0	0	0	stim002_stimuli_original_animals_birds_2.png	T	0	0	0	310.938744599989	311.138742799987
73954	100	371	10	1	8	11	7	4	0	0	0	stim008_stimuli_original_animals_fish_4.png	E	0	0	0	311.338757199992	311.538755299989
74054	100	372	10	1	8	12	9	13	0	1	0	stim010_stimuli_original_vehicles_boats_2.png	U	0	0	0	311.738768599986	311.938764799968
74154	100	373	10	1	8	13	6	5	0	0	0	stim007_stimuli_original_animals_fish_3.png	F	0	0	0	312.138783100003	312.338778299978
74254	100	374	10	1	8	14	4	13	0	1	1	stim005_stimuli_original_animals_fish_1.png	U	0	0	0	312.53878860001	312.738792599994
74354	100	375	10	1	8	15	13	15	0	0	0	stim014_stimuli_original_vehicles_planes_2.png	Y	f	313.130586299987	1	312.938797999988	313.138798700005
74454	100	376	10	1	8	16	0	10	0	0	0	stim001_stimuli_original_animals_birds_1.png	Q	0	0	0	313.338814399962	313.538806499972
74554	100	377	10	1	8	17	14	1	0	0	0	stim015_stimuli_original_vehicles_planes_3.png	B	0	0	0	313.738819699967	313.93882489996
74654	100	378	10	1	8	18	1	14	0	0	0	stim002_stimuli_original_animals_birds_2.png	V	0	0	0	314.138829600008	314.338810099987
74754	100	379	10	1	8	19	10	0	0	0	0	stim011_stimuli_original_vehicles_boats_3.png	A	0	0	0	314.538840499998	314.738860699988
74854	100	380	10	1	8	20	15	13	0	0	0	stim016_stimuli_original_vehicles_planes_4.png	U	0	0	0	314.938854499953	315.138851199998
74954	100	381	10	1	8	21	13	4	1	0	0	stim014_stimuli_original_vehicles_planes_2.png	E	0	0	0	315.338861599972	315.538862799993
75054	100	382	10	1	8	22	5	6	0	0	0	stim006_stimuli_original_animals_fish_2.png	G	0	0	0	315.738857599965	315.93887339998
75154	100	383	10	1	8	23	13	9	1	0	0	stim014_stimuli_original_vehicles_planes_2.png	L	0	0	0	316.138887199981	316.338884699973
75254	100	384	10	1	8	24	4	7	0	0	0	stim005_stimuli_original_animals_fish_1.png	J	0	0	0	316.538894500001	316.738894199952
75354	100	385	10	1	8	25	12	1	0	0	0	stim013_stimuli_original_vehicles_planes_1.png	B	0	0	0	316.938896999985	317.138906100008
75454	100	386	10	1	8	26	11	11	0	0	0	stim012_stimuli_original_vehicles_boats_4.png	R	0	0	0	317.338917299989	317.538910200004
75554	100	387	10	1	8	27	2	15	0	0	0	stim003_stimuli_original_animals_birds_3.png	Y	0	0	0	317.738925099955	317.938924799964
75654	100	388	10	1	8	28	0	7	0	1	0	stim001_stimuli_original_animals_birds_1.png	J	0	0	0	318.138939099968	318.338937499968
75754	100	389	10	1	8	29	14	8	0	0	0	stim015_stimuli_original_vehicles_planes_3.png	K	0	0	0	318.538949899958	318.7389463
75854	100	390	10	1	8	30	6	7	0	1	1	stim007_stimuli_original_animals_fish_3.png	J	0	0	0	318.938959699997	319.138966600003
75954	100	391	10	1	8	31	13	12	0	0	0	stim014_stimuli_original_vehicles_planes_2.png	T	f	319.530761400005	1	319.338976699975	319.538980699959
76054	100	392	10	1	8	32	3	5	0	0	0	stim004_stimuli_original_animals_birds_4.png	F	0	0	0	319.738982499985	319.938996599987
76154	100	393	10	1	8	33	7	3	0	0	0	stim008_stimuli_original_animals_fish_4.png	D	0	0	0	320.138997800008	320.338993699988
76254	100	394	10	1	8	34	8	2	0	0	0	stim009_stimuli_original_vehicles_boats_1.png	C	0	0	0	320.53902029997	320.7389998
76354	100	395	10	1	8	35	9	10	0	0	0	stim010_stimuli_original_vehicles_boats_2.png	Q	0	0	0	320.939017499972	321.139002699987
82766.75	100	396	11	0	41	0	0	7	0	0	0	stim001_stimuli_original_animals_birds_1.png	J	0	0	0	346.589677599957	346.789677499968
82866.75	100	397	11	0	41	1	1	1	0	0	0	stim002_stimuli_original_animals_birds_2.png	B	0	0	0	346.98968519998	347.189685899997
82966.75	100	398	11	0	41	2	6	15	0	0	0	stim007_stimuli_original_animals_fish_3.png	Y	0	0	0	347.389695899969	347.589700999961
83066.75	100	399	11	0	41	3	8	6	0	0	0	stim009_stimuli_original_vehicles_boats_1.png	G	0	0	0	347.789707199961	347.989706899971
83166.75	100	400	11	0	41	4	13	14	0	0	0	stim014_stimuli_original_vehicles_planes_2.png	V	0	0	0	348.189718999958	348.389718099963
83266.75	100	401	11	0	41	5	9	0	0	0	0	stim010_stimuli_original_vehicles_boats_2.png	A	0	0	0	348.589727499988	348.789725699986
83366.75	100	402	11	0	41	6	10	2	0	0	0	stim011_stimuli_original_vehicles_boats_3.png	C	0	0	0	348.98973869998	349.189739199996
83466.75	100	403	11	0	41	7	2	3	0	0	0	stim003_stimuli_original_animals_birds_3.png	D	0	0	0	349.389750799979	349.589754099958
83566.75	100	404	11	0	41	8	14	12	0	0	0	stim015_stimuli_original_vehicles_planes_3.png	T	0	0	0	349.789760699961	349.989760399971
83666.75	100	405	11	0	41	9	4	11	0	0	0	stim005_stimuli_original_animals_fish_1.png	R	0	0	0	350.189786100003	350.38978540001
83766.75	100	406	11	0	41	10	2	5	1	0	0	stim003_stimuli_original_animals_birds_3.png	F	0	0	0	350.589793499967	350.789799199963
83866.75	100	407	11	0	41	11	11	3	0	1	0	stim012_stimuli_original_vehicles_boats_4.png	D	0	0	0	350.98980619997	351.189805699978
83966.75	100	408	11	0	41	12	2	9	1	0	1	stim003_stimuli_original_animals_birds_3.png	L	f	351.382446100004	1	351.389814199996	351.589824699971
84066.75	100	409	11	0	41	13	7	3	0	1	0	stim008_stimuli_original_animals_fish_4.png	D	0	0	0	351.789825999993	351.989827299956
84166.75	100	410	11	0	41	14	5	4	0	0	0	stim006_stimuli_original_animals_fish_2.png	E	0	0	0	352.189835499972	352.389835199981
84266.75	100	411	11	0	41	15	15	8	0	0	0	stim016_stimuli_original_vehicles_planes_4.png	K	0	0	0	352.589848199976	352.789872199995
84366.75	100	412	11	0	41	16	3	13	0	0	0	stim004_stimuli_original_animals_birds_4.png	U	0	0	0	352.989858299959	353.189858899976
84466.75	100	413	11	0	41	17	12	10	0	0	0	stim013_stimuli_original_vehicles_planes_1.png	Q	0	0	0	353.389868600003	353.589866599999
84566.75	100	414	11	0	41	18	10	12	0	0	0	stim011_stimuli_original_vehicles_boats_3.png	T	0	0	0	353.789880199998	353.989882199967
84666.75	100	415	11	0	41	19	13	3	0	0	0	stim014_stimuli_original_vehicles_planes_2.png	D	0	0	0	354.189892299997	354.389888799982
84766.75	100	416	11	0	41	20	8	15	0	0	0	stim009_stimuli_original_vehicles_boats_1.png	Y	0	0	0	354.589900199964	354.789899799973
84866.75	100	417	11	0	41	21	4	5	0	0	0	stim005_stimuli_original_animals_fish_1.png	F	0	0	0	354.989910000004	355.189910899964
84966.75	100	418	11	0	41	22	3	7	1	0	0	stim004_stimuli_original_animals_birds_4.png	J	0	0	0	355.389921800001	355.589921899955
85066.75	100	419	11	0	41	23	9	2	0	1	0	stim010_stimuli_original_vehicles_boats_2.png	C	0	0	0	355.789932899992	355.989931899996
85166.75	100	420	11	0	41	24	3	11	1	0	1	stim004_stimuli_original_animals_birds_4.png	R	0	0	0	356.189943099977	356.389943499991
85266.75	100	421	11	0	41	25	5	2	0	1	0	stim006_stimuli_original_animals_fish_2.png	C	f	356.582528200001	1	356.589952399954	356.789956799999
85366.75	100	422	11	0	41	26	11	4	0	0	0	stim012_stimuli_original_vehicles_boats_4.png	E	0	0	0	356.989963700005	357.189952699991
85466.75	100	423	11	0	41	27	12	14	0	0	0	stim013_stimuli_original_vehicles_planes_1.png	V	0	0	0	357.389962999965	357.589963299979
85566.75	100	424	11	0	41	28	3	2	0	0	0	stim004_stimuli_original_animals_birds_4.png	C	0	0	0	357.789974299958	357.989999199985
85666.75	100	425	11	0	41	29	2	10	0	0	0	stim003_stimuli_original_animals_birds_3.png	Q	0	0	0	358.189986399957	358.389984499954
85766.75	100	426	11	0	41	30	0	9	0	0	0	stim001_stimuli_original_animals_birds_1.png	L	0	0	0	358.589995199989	358.789994299994
85866.75	100	427	11	0	41	31	14	13	0	0	0	stim015_stimuli_original_vehicles_planes_3.png	U	0	0	0	358.990007299988	359.190005899989
85966.75	100	428	11	0	41	32	6	8	0	0	0	stim007_stimuli_original_animals_fish_3.png	K	0	0	0	359.390017499973	359.590017699986
86066.75	100	429	11	0	41	33	15	6	0	0	0	stim016_stimuli_original_vehicles_planes_4.png	G	0	0	0	359.790028799966	359.990027699969
86166.75	100	430	11	0	41	34	1	1	0	0	0	stim002_stimuli_original_animals_birds_2.png	B	0	0	0	360.190041099966	360.390041699982
86266.75	100	431	11	0	41	35	7	0	0	0	0	stim008_stimuli_original_animals_fish_4.png	A	0	0	0	360.590050500003	360.790049400006
89491.75	100	432	12	1	19	0	14	7	0	0	0	stim015_stimuli_original_vehicles_planes_3.png	J	0	0	0	373.490427399985	373.690419399994
89591.75	100	433	12	1	19	1	5	13	0	0	0	stim006_stimuli_original_animals_fish_2.png	U	0	0	0	373.890442000004	374.090429299977
89691.75	100	434	12	1	19	2	9	12	0	0	0	stim010_stimuli_original_vehicles_boats_2.png	T	0	0	0	374.290442099969	374.490439599962
89791.75	100	435	12	1	19	3	11	15	0	0	0	stim012_stimuli_original_vehicles_boats_4.png	Y	0	0	0	374.690450800001	374.890450100007
89891.75	100	436	12	1	19	4	7	2	0	0	0	stim008_stimuli_original_animals_fish_4.png	C	0	0	0	375.090462199994	375.290461600001
89991.75	100	437	12	1	19	5	12	1	0	0	0	stim013_stimuli_original_vehicles_planes_1.png	B	0	0	0	375.490476000006	375.690472799994
90091.75	100	438	12	1	19	6	6	8	0	0	0	stim007_stimuli_original_animals_fish_3.png	K	0	0	0	375.890481599956	376.090471500007
90191.75	100	439	12	1	19	7	4	14	0	1	0	stim005_stimuli_original_animals_fish_1.png	V	0	0	0	376.290493100008	376.490495099977
90291.75	100	440	12	1	19	8	13	6	0	0	0	stim014_stimuli_original_vehicles_planes_2.png	G	0	0	0	376.690503799997	376.890503400005
90391.75	100	441	12	1	19	9	1	14	0	1	1	stim002_stimuli_original_animals_birds_2.png	V	0	0	0	377.0905165	377.290515400004
90491.75	100	442	12	1	19	10	4	5	1	0	0	stim005_stimuli_original_animals_fish_1.png	F	0	0	0	377.490526399983	377.690528000006
90591.75	100	443	12	1	19	11	0	0	0	0	0	stim001_stimuli_original_animals_birds_1.png	A	0	0	0	377.890532999998	378.09053679998
90692	100	444	12	1	19	12	4	3	1	0	0	stim005_stimuli_original_animals_fish_1.png	D	0	0	0	378.290546100005	378.49054639996
90792	100	445	12	1	19	13	10	11	0	0	0	stim011_stimuli_original_vehicles_boats_3.png	R	0	0	0	378.690548199986	378.890556600003
90892	100	446	12	1	19	14	15	14	0	0	0	stim016_stimuli_original_vehicles_planes_4.png	V	0	0	0	379.090566799976	379.290573299979
90992	100	447	12	1	19	15	2	10	0	0	0	stim003_stimuli_original_animals_birds_3.png	Q	0	0	0	379.49058350001	379.690577899979
91092	100	448	12	1	19	16	8	9	0	0	0	stim009_stimuli_original_vehicles_boats_1.png	L	0	0	0	379.890594700002	380.090596099966
91192	100	449	12	1	19	17	3	4	0	0	0	stim004_stimuli_original_animals_birds_4.png	E	0	0	0	380.290603099973	380.490601499972
91292	100	450	12	1	19	18	4	3	0	0	0	stim005_stimuli_original_animals_fish_1.png	D	0	0	0	380.690611900005	380.890610300004
91392	100	451	12	1	19	19	9	8	0	0	0	stim010_stimuli_original_vehicles_boats_2.png	K	0	0	0	381.090622299991	381.290623299952
91492	100	452	12	1	19	20	10	2	0	0	0	stim011_stimuli_original_vehicles_boats_3.png	C	0	0	0	381.490635499998	381.69064419996
91592	100	453	12	1	19	21	14	15	0	0	0	stim015_stimuli_original_vehicles_planes_3.png	Y	0	0	0	381.890656300006	382.090643299976
91692	100	454	12	1	19	22	11	10	0	0	0	stim012_stimuli_original_vehicles_boats_4.png	Q	0	0	0	382.29065489996	382.490654599969
91792	100	455	12	1	19	23	3	4	0	1	0	stim004_stimuli_original_animals_birds_4.png	E	0	0	0	382.690667999967	382.890664599952
91892	100	456	12	1	19	24	0	0	0	0	0	stim001_stimuli_original_animals_birds_1.png	A	0	0	0	383.090675499989	383.290674999997
91992	100	457	12	1	19	25	5	4	0	1	1	stim006_stimuli_original_animals_fish_2.png	E	0	0	0	383.490684799966	383.690687399998
92092	100	458	12	1	19	26	14	1	1	0	0	stim015_stimuli_original_vehicles_planes_3.png	B	0	0	0	383.890703399957	384.090698799992
92192	100	459	12	1	19	27	6	13	0	0	0	stim007_stimuli_original_animals_fish_3.png	U	f	384.28330239997	1	384.290711999987	384.490715099964
92292	100	460	12	1	19	28	14	4	1	0	0	stim015_stimuli_original_vehicles_planes_3.png	E	0	0	0	384.690719999955	384.890718799958
92392	100	461	12	1	19	29	8	6	0	0	0	stim009_stimuli_original_vehicles_boats_1.png	G	0	0	0	385.090731999953	385.290730799956
92492	100	462	12	1	19	30	1	12	0	0	0	stim002_stimuli_original_animals_birds_2.png	T	0	0	0	385.49074009998	385.690741400002
92592	100	463	12	1	19	31	2	7	0	0	0	stim003_stimuli_original_animals_birds_3.png	J	0	0	0	385.890751499974	386.090729799995
92692	100	464	12	1	19	32	15	11	0	0	0	stim016_stimuli_original_vehicles_planes_4.png	R	0	0	0	386.29076329997	386.490771099983
92792	100	465	12	1	19	33	12	9	0	0	0	stim013_stimuli_original_vehicles_planes_1.png	L	0	0	0	386.690791999979	386.890772499959
92892	100	466	12	1	19	34	13	5	0	0	0	stim014_stimuli_original_vehicles_planes_2.png	F	0	0	0	387.090784900007	387.290785499965
92992	100	467	12	1	19	35	7	14	0	0	0	stim008_stimuli_original_animals_fish_4.png	V	0	0	0	387.490793799981	387.690792699985
94733.75	100	468	13	0	47	0	15	6	0	0	0	stim016_stimuli_original_vehicles_planes_4.png	G	0	0	0	394.457654399972	394.657653799979
94833.75	100	469	13	0	47	1	9	2	0	0	0	stim010_stimuli_original_vehicles_boats_2.png	C	0	0	0	394.857666499971	395.057665299973
94933.75	100	470	13	0	47	2	0	12	0	0	0	stim001_stimuli_original_animals_birds_1.png	T	0	0	0	395.257678499969	395.457677999977
95033.75	100	471	13	0	47	3	5	7	0	0	0	stim006_stimuli_original_animals_fish_2.png	J	0	0	0	395.657689999964	395.857686200005
95133.75	100	472	13	0	47	4	11	8	0	0	0	stim012_stimuli_original_vehicles_boats_4.png	K	0	0	0	396.057700999954	396.257698700007
95233.75	100	473	13	0	47	5	3	13	0	0	0	stim004_stimuli_original_animals_birds_4.png	U	0	0	0	396.45770769997	396.657710500003
95333.75	100	474	13	0	47	6	2	1	0	0	0	stim003_stimuli_original_animals_birds_3.png	B	0	0	0	396.857720799977	397.057721399993
95433.75	100	475	13	0	47	7	15	15	1	0	0	stim016_stimuli_original_vehicles_planes_4.png	Y	0	0	0	397.257730899961	397.457732799987
95533.75	100	476	13	0	47	8	8	3	0	0	0	stim009_stimuli_original_vehicles_boats_1.png	D	0	0	0	397.657740800001	397.857742199965
95633.75	100	477	13	0	47	9	15	13	1	1	1	stim016_stimuli_original_vehicles_planes_4.png	U	0	0	0	398.057752199995	398.25775260001
95733.75	100	478	13	0	47	10	4	9	0	0	0	stim005_stimuli_original_animals_fish_1.png	L	f	398.649553900003	1	398.457763299986	398.6577865
95833.75	100	479	13	0	47	11	7	13	0	1	0	stim008_stimuli_original_animals_fish_4.png	U	0	0	0	398.857776399993	399.057773699984
95933.75	100	480	13	0	47	12	13	14	0	0	0	stim014_stimuli_original_vehicles_planes_2.png	V	0	0	0	399.257798599952	399.45778669999
96033.75	100	481	13	0	47	13	10	4	0	0	0	stim011_stimuli_original_vehicles_boats_3.png	E	0	0	0	399.657794300001	399.857795499964
96133.75	100	482	13	0	47	14	14	0	0	0	0	stim015_stimuli_original_vehicles_planes_3.png	A	0	0	0	400.057805299992	400.257809099974
96233.75	100	483	13	0	47	15	6	10	0	0	0	stim007_stimuli_original_animals_fish_3.png	Q	0	0	0	400.457821299962	400.657815199986
96333.75	100	484	13	0	47	16	1	5	0	0	0	stim002_stimuli_original_animals_birds_2.png	F	0	0	0	400.857827299973	401.057826899982
96433.75	100	485	13	0	47	17	12	11	0	0	0	stim013_stimuli_original_vehicles_planes_1.png	R	0	0	0	401.257848999987	401.457839299983
96533.75	100	486	13	0	47	18	11	12	0	0	0	stim012_stimuli_original_vehicles_boats_4.png	T	0	0	0	401.657851999975	401.857853599999
96633.75	100	487	13	0	47	19	5	1	0	0	0	stim006_stimuli_original_animals_fish_2.png	B	0	0	0	402.057860000001	402.257867599954
96733.75	100	488	13	0	47	20	10	6	0	0	0	stim011_stimuli_original_vehicles_boats_3.png	G	0	0	0	402.457870499988	402.657873999968
96833.75	100	489	13	0	47	21	0	14	0	0	0	stim001_stimuli_original_animals_birds_1.png	V	0	0	0	402.857883999997	403.057880699984
96933.75	100	490	13	0	47	22	4	10	0	0	0	stim005_stimuli_original_animals_fish_1.png	Q	0	0	0	403.257879399986	403.457863999996
97033.75	100	491	13	0	47	23	14	13	0	0	0	stim015_stimuli_original_vehicles_planes_3.png	U	0	0	0	403.657883699983	403.857889999985
97133.75	100	492	13	0	47	24	13	7	1	0	0	stim014_stimuli_original_vehicles_planes_2.png	J	0	0	0	404.057891999953	404.257893399976
97233.75	100	493	13	0	47	25	9	4	0	0	0	stim010_stimuli_original_vehicles_boats_2.png	E	0	0	0	404.457907099975	404.657892399991
97333.75	100	494	13	0	47	26	13	15	1	1	1	stim014_stimuli_original_vehicles_planes_2.png	Y	0	0	0	404.857903999975	405.05791839998
97433.75	100	495	13	0	47	27	3	8	0	0	0	stim004_stimuli_original_animals_birds_4.png	K	0	0	0	405.257929699961	405.4579257
97533.75	100	496	13	0	47	28	15	15	0	1	0	stim016_stimuli_original_vehicles_planes_4.png	Y	0	0	0	405.657937399985	405.857935599983
97633.75	100	497	13	0	47	29	1	2	0	0	0	stim002_stimuli_original_animals_birds_2.png	C	0	0	0	406.057975600008	406.257948199986
97733.75	100	498	13	0	47	30	13	3	0	0	0	stim014_stimuli_original_vehicles_planes_2.png	D	0	0	0	406.457957899955	406.657960399985
97833.75	100	499	13	0	47	31	8	11	0	0	0	stim009_stimuli_original_vehicles_boats_1.png	R	0	0	0	406.857956399966	407.057956199977
97933.75	100	500	13	0	47	32	7	5	0	0	0	stim008_stimuli_original_animals_fish_4.png	F	f	407.250495699991	0	407.257967699959	407.457969299983
98033.75	100	501	13	0	47	33	12	0	0	0	0	stim013_stimuli_original_vehicles_planes_1.png	A	0	0	0	407.657979699958	407.857977999956
98133.75	100	502	13	0	47	34	2	9	0	0	0	stim003_stimuli_original_animals_birds_3.png	L	0	0	0	408.057988299988	408.257988099998
98233.75	100	503	13	0	47	35	6	15	0	0	0	stim007_stimuli_original_animals_fish_3.png	Y	0	0	0	408.45800579997	408.658023099997
99963	100	504	14	1	45	0	14	11	0	0	0	stim015_stimuli_original_vehicles_planes_3.png	R	0	0	0	415.374855000002	415.574852699996
100063	100	505	14	1	45	1	5	10	0	0	0	stim006_stimuli_original_animals_fish_2.png	Q	0	0	0	415.77486169996	415.974863999989
100163	100	506	14	1	45	2	13	7	0	0	0	stim014_stimuli_original_vehicles_planes_2.png	J	0	0	0	416.174872700009	416.374873399967
100263	100	507	14	1	45	3	10	8	0	0	0	stim011_stimuli_original_vehicles_boats_3.png	K	0	0	0	416.57488510001	416.774891799956
100363	100	508	14	1	45	4	1	0	0	0	0	stim002_stimuli_original_animals_birds_2.png	A	0	0	0	416.974896	417.174895200005
100463	100	509	14	1	45	5	3	2	0	0	0	stim004_stimuli_original_animals_birds_4.png	C	0	0	0	417.374907699996	417.574905199988
100563	100	510	14	1	45	6	10	1	1	0	0	stim011_stimuli_original_vehicles_boats_3.png	B	0	0	0	417.774915799964	417.974914299964
100663	100	511	14	1	45	7	2	4	0	0	0	stim003_stimuli_original_animals_birds_3.png	E	0	0	0	418.174928499968	418.374927499972
100763	100	512	14	1	45	8	10	8	1	1	0	stim011_stimuli_original_vehicles_boats_3.png	K	0	0	0	418.574938999955	418.774939399969
100863	100	513	14	1	45	9	6	14	0	0	0	stim007_stimuli_original_animals_fish_3.png	V	0	0	0	418.974949299998	419.174949699955
100963	100	514	14	1	45	10	8	8	0	1	1	stim009_stimuli_original_vehicles_boats_1.png	K	0	0	0	419.374960599991	419.574959199992
101063	100	515	14	1	45	11	0	6	0	0	0	stim001_stimuli_original_animals_birds_1.png	G	f	419.966786799952	1	419.774972299987	419.974996500008
101163	100	516	14	1	45	12	12	9	0	0	0	stim013_stimuli_original_vehicles_planes_1.png	L	0	0	0	420.174985599995	420.374981599976
101263	100	517	14	1	45	13	15	13	0	0	0	stim016_stimuli_original_vehicles_planes_4.png	U	0	0	0	420.574992999958	420.77499299997
101363	100	518	14	1	45	14	4	12	0	0	0	stim005_stimuli_original_animals_fish_1.png	T	0	0	0	420.975006499968	421.175004399964
101463	100	519	14	1	45	15	7	15	0	0	0	stim008_stimuli_original_animals_fish_4.png	Y	0	0	0	421.375013299985	421.57501239999
101563	100	520	14	1	45	16	11	3	0	0	0	stim012_stimuli_original_vehicles_boats_4.png	D	0	0	0	421.775023799972	421.97502339998
101663	100	521	14	1	45	17	9	5	0	0	0	stim010_stimuli_original_vehicles_boats_2.png	F	0	0	0	422.175037599984	422.375033799966
101763	100	522	14	1	45	18	5	9	0	0	0	stim006_stimuli_original_animals_fish_2.png	L	0	0	0	422.575044199999	422.775044599955
101863	100	523	14	1	45	19	3	11	0	0	0	stim004_stimuli_original_animals_birds_4.png	R	0	0	0	422.975059799966	423.17505630001
101963	100	524	14	1	45	20	15	7	0	0	0	stim016_stimuli_original_vehicles_planes_4.png	J	0	0	0	423.37506619998	423.575067199999
102063	100	525	14	1	45	21	12	4	0	0	0	stim013_stimuli_original_vehicles_planes_1.png	E	0	0	0	423.775077599974	423.975076199975
102163	100	526	14	1	45	22	13	15	0	0	0	stim014_stimuli_original_vehicles_planes_2.png	Y	0	0	0	424.175090099976	424.375087999972
102263	100	527	14	1	45	23	9	12	0	0	0	stim010_stimuli_original_vehicles_boats_2.png	T	0	0	0	424.575099599955	424.77509869996
102363	100	528	14	1	45	24	6	0	0	0	0	stim007_stimuli_original_animals_fish_3.png	A	0	0	0	424.975110500003	425.175108700001
102463	100	529	14	1	45	25	8	8	1	0	0	stim009_stimuli_original_vehicles_boats_1.png	K	f	425.566914099967	0	425.375120799989	425.575119899993
102563	100	530	14	1	45	26	14	6	0	0	0	stim015_stimuli_original_vehicles_planes_3.png	G	0	0	0	425.775131299975	425.975129299972
102663	100	531	14	1	45	27	8	10	1	1	0	stim009_stimuli_original_vehicles_boats_1.png	Q	0	0	0	426.175142999971	426.375145600003
102763	100	532	14	1	45	28	4	2	0	0	0	stim005_stimuli_original_animals_fish_1.png	C	0	0	0	426.575153199956	426.775155199983
102863	100	533	14	1	45	29	1	10	0	1	1	stim002_stimuli_original_animals_birds_2.png	Q	0	0	0	426.975161099981	427.175164199958
102963	100	534	14	1	45	30	2	3	0	0	0	stim003_stimuli_original_animals_birds_3.png	D	0	0	0	427.37517449999	427.575196999998
103063	100	535	14	1	45	31	0	1	0	0	0	stim001_stimuli_original_animals_birds_1.png	B	f	427.966973399976	1	427.775185199978	427.975184599985
103163	100	536	14	1	45	32	8	10	0	0	0	stim009_stimuli_original_vehicles_boats_1.png	Q	0	0	0	428.175195799966	428.375195799978
103263	100	537	14	1	45	33	7	13	0	0	0	stim008_stimuli_original_animals_fish_4.png	U	0	0	0	428.57520719996	428.775206899969
103363	100	538	14	1	45	34	10	5	0	0	0	stim011_stimuli_original_vehicles_boats_3.png	F	0	0	0	428.975219699962	429.175216800009
103463	100	539	14	1	45	35	11	14	0	0	0	stim012_stimuli_original_vehicles_boats_4.png	V	0	0	0	429.375228099991	429.575228900008
106234	100	540	15	0	18	0	9	4	0	0	0	stim010_stimuli_original_vehicles_boats_2.png	E	0	0	0	440.458882999956	440.658886399993
106334	100	541	15	0	18	1	3	1	0	0	0	stim004_stimuli_original_animals_birds_4.png	B	0	0	0	440.858891399985	441.058893499954
106434	100	542	15	0	18	2	6	13	0	0	0	stim007_stimuli_original_animals_fish_3.png	U	0	0	0	441.258912699996	441.458913499955
106534	100	543	15	0	18	3	0	3	0	0	0	stim001_stimuli_original_animals_birds_1.png	D	0	0	0	441.658903100004	441.858902100008
106634	100	544	15	0	18	4	8	14	0	0	0	stim009_stimuli_original_vehicles_boats_1.png	V	0	0	0	442.058911199972	442.258912299993
106734	100	545	15	0	18	5	2	5	0	1	0	stim003_stimuli_original_animals_birds_3.png	F	0	0	0	442.458923999977	442.658923299983
106834	100	546	15	0	18	6	14	11	1	0	0	stim015_stimuli_original_vehicles_planes_3.png	R	0	0	0	442.85893529997	443.058932199958
106934	100	547	15	0	18	7	4	5	0	1	0	stim005_stimuli_original_animals_fish_1.png	F	0	0	0	443.258946499962	443.458931499976
107034	100	548	15	0	18	8	14	7	1	0	1	stim015_stimuli_original_vehicles_planes_3.png	J	0	0	0	443.65895479999	443.858957899967
107134	100	549	15	0	18	9	12	6	0	0	0	stim013_stimuli_original_vehicles_planes_1.png	G	f	444.250779399998	1	444.058988099976	444.258964999986
107234	100	550	15	0	18	10	10	8	0	0	0	stim011_stimuli_original_vehicles_boats_3.png	K	0	0	0	444.458977299975	444.658977599989
107334	100	551	15	0	18	11	5	10	0	0	0	stim006_stimuli_original_animals_fish_2.png	Q	0	0	0	444.858986100007	445.058987399971
107434	100	552	15	0	18	12	15	12	0	0	0	stim016_stimuli_original_vehicles_planes_4.png	T	0	0	0	445.258998500009	445.459000299976
107534	100	553	15	0	18	13	1	15	0	0	0	stim002_stimuli_original_animals_birds_2.png	Y	0	0	0	445.659010200005	445.859010099957
107634	100	554	15	0	18	14	14	9	0	0	0	stim015_stimuli_original_vehicles_planes_3.png	L	0	0	0	446.059018199972	446.259019799996
107734	100	555	15	0	18	15	13	5	0	0	0	stim014_stimuli_original_vehicles_planes_2.png	F	0	0	0	446.459020499955	446.659018400009
107834	100	556	15	0	18	16	11	0	0	0	0	stim012_stimuli_original_vehicles_boats_4.png	A	0	0	0	446.859035699978	447.059043799993
107934	100	557	15	0	18	17	7	2	0	0	0	stim008_stimuli_original_animals_fish_4.png	C	0	0	0	447.259053499962	447.459042800008
108034	100	558	15	0	18	18	2	7	0	0	0	stim003_stimuli_original_animals_birds_3.png	J	0	0	0	447.659056999953	447.859051199979
108134	100	559	15	0	18	19	0	11	0	0	0	stim001_stimuli_original_animals_birds_1.png	R	0	0	0	448.059073599987	448.259072399989
108234	100	560	15	0	18	20	5	13	0	0	0	stim006_stimuli_original_animals_fish_2.png	U	0	0	0	448.459082499961	448.659085299994
108334	100	561	15	0	18	21	9	14	0	0	0	stim010_stimuli_original_vehicles_boats_2.png	V	0	0	0	448.859123300004	449.059096499986
108434	100	562	15	0	18	22	15	1	0	0	0	stim016_stimuli_original_vehicles_planes_4.png	B	0	0	0	449.259105100005	449.459105799964
108534	100	563	15	0	18	23	12	15	0	0	0	stim013_stimuli_original_vehicles_planes_1.png	Y	0	0	0	449.659116099996	449.8591151
108634	100	564	15	0	18	24	10	5	0	0	0	stim011_stimuli_original_vehicles_boats_3.png	F	0	0	0	450.059128099994	450.259131199971
108734	100	565	15	0	18	25	8	10	0	0	0	stim009_stimuli_original_vehicles_boats_1.png	Q	0	0	0	450.459138999984	450.659136499977
108834	100	566	15	0	18	26	6	12	0	0	0	stim007_stimuli_original_animals_fish_3.png	T	0	0	0	450.859153800004	451.059148399974
108934	100	567	15	0	18	27	7	14	0	1	0	stim008_stimuli_original_animals_fish_4.png	V	0	0	0	451.259159399953	451.459161899984
109034	100	568	15	0	18	28	5	4	1	0	0	stim006_stimuli_original_animals_fish_2.png	E	0	0	0	451.659169699997	451.859173799981
109134	100	569	15	0	18	29	11	14	0	1	0	stim012_stimuli_original_vehicles_boats_4.png	V	0	0	0	452.059181199991	452.259180599998
109234	100	570	15	0	18	30	5	2	1	0	1	stim006_stimuli_original_animals_fish_2.png	C	0	0	0	452.459186799999	452.659180099959
109334	100	571	15	0	18	31	14	8	0	0	0	stim015_stimuli_original_vehicles_planes_3.png	K	f	453.050984299975	1	452.859190399991	453.059190800006
109434	100	572	15	0	18	32	3	0	0	0	0	stim004_stimuli_original_animals_birds_4.png	A	0	0	0	453.259203099995	453.459203400009
109534	100	573	15	0	18	33	13	6	0	0	0	stim014_stimuli_original_vehicles_planes_2.png	G	0	0	0	453.659213599982	453.859212399984
109634	100	574	15	0	18	34	1	3	0	0	0	stim002_stimuli_original_animals_birds_2.png	D	0	0	0	454.059222799959	454.25922279997
109734	100	575	15	0	18	35	4	9	0	0	0	stim005_stimuli_original_animals_fish_1.png	L	0	0	0	454.45923410001	454.659233099956
112263.25	100	576	16	1	32	0	5	7	0	0	0	stim006_stimuli_original_animals_fish_2.png	J	0	0	0	464.576196699985	464.776170899975
112363.25	100	577	16	1	32	1	1	5	0	0	0	stim002_stimuli_original_animals_birds_2.png	F	0	0	0	464.97618399997	465.176229199977
112463.25	100	578	16	1	32	2	4	11	0	0	0	stim005_stimuli_original_animals_fish_1.png	R	0	0	0	465.376194599958	465.576193199959
112563.25	100	579	16	1	32	3	12	4	0	0	0	stim013_stimuli_original_vehicles_planes_1.png	E	0	0	0	465.776201999979	465.976202799997
112663.25	100	580	16	1	32	4	10	15	0	0	0	stim011_stimuli_original_vehicles_boats_3.png	Y	0	0	0	466.176212899969	466.376213699987
112763.25	100	581	16	1	32	5	15	14	0	0	0	stim016_stimuli_original_vehicles_planes_4.png	V	0	0	0	466.576224599965	466.776247199974
112863.25	100	582	16	1	32	6	13	12	1	1	0	stim014_stimuli_original_vehicles_planes_2.png	T	0	0	0	466.976235399954	467.17624359997
112963.25	100	583	16	1	32	7	9	10	0	0	0	stim010_stimuli_original_vehicles_boats_2.png	Q	0	0	0	467.376247399952	467.576248899975
113063.25	100	584	16	1	32	8	13	12	1	1	1	stim014_stimuli_original_vehicles_planes_2.png	T	0	0	0	467.776262899977	467.976256199996
113163.25	100	585	16	1	32	9	2	1	0	0	0	stim003_stimuli_original_animals_birds_3.png	B	0	0	0	468.176269699994	468.376268799999
113263.25	100	586	16	1	32	10	0	3	0	0	0	stim001_stimuli_original_animals_birds_1.png	D	f	468.56886249996	1	468.576280199981	468.776278999983
113363.25	100	587	16	1	32	11	3	13	0	0	0	stim004_stimuli_original_animals_birds_4.png	U	0	0	0	468.976291499974	469.176295399957
113463.25	100	588	16	1	32	12	14	6	0	0	0	stim015_stimuli_original_vehicles_planes_3.png	G	0	0	0	469.376330900006	469.576298400003
113563.25	100	589	16	1	32	13	8	8	0	0	0	stim009_stimuli_original_vehicles_boats_1.png	K	0	0	0	469.776310299989	469.976326999953
113663.25	100	590	16	1	32	14	11	2	0	0	0	stim012_stimuli_original_vehicles_boats_4.png	C	0	0	0	470.176323299995	470.376340699964
113763.25	100	591	16	1	32	15	13	12	0	0	0	stim014_stimuli_original_vehicles_planes_2.png	T	0	0	0	470.576345399953	470.77634729998
113863.25	100	592	16	1	32	16	7	9	0	0	0	stim008_stimuli_original_animals_fish_4.png	L	0	0	0	470.976360899978	471.176355999953
113963.25	100	593	16	1	32	17	6	0	0	0	0	stim007_stimuli_original_animals_fish_3.png	A	0	0	0	471.376355099957	471.576386599976
114063.25	100	594	16	1	32	18	0	6	0	0	0	stim001_stimuli_original_animals_birds_1.png	G	0	0	0	471.776364899997	471.976391199976
114163.25	100	595	16	1	32	19	9	7	0	0	0	stim010_stimuli_original_vehicles_boats_2.png	J	0	0	0	472.176377199998	472.376381799986
114263.25	100	596	16	1	32	20	12	13	0	0	0	stim013_stimuli_original_vehicles_planes_1.png	U	0	0	0	472.576404299994	472.776387899998
114363.25	100	597	16	1	32	21	2	11	0	0	0	stim003_stimuli_original_animals_birds_3.png	R	0	0	0	472.976397299964	473.176396999974
114463.25	100	598	16	1	32	22	8	8	0	0	0	stim009_stimuli_original_vehicles_boats_1.png	K	0	0	0	473.376412099984	473.576406100008
114563.25	100	599	16	1	32	23	6	14	0	0	0	stim007_stimuli_original_animals_fish_3.png	V	0	0	0	473.776420899958	473.976417500002
114663.25	100	600	16	1	32	24	13	3	0	0	0	stim014_stimuli_original_vehicles_planes_2.png	D	0	0	0	474.176429199986	474.376428299991
114763.25	100	601	16	1	32	25	3	0	0	0	0	stim004_stimuli_original_animals_birds_4.png	A	0	0	0	474.576453899965	474.776442000002
114863.25	100	602	16	1	32	26	1	2	0	0	0	stim002_stimuli_original_animals_birds_2.png	C	0	0	0	474.976450299961	475.176449799968
114963.25	100	603	16	1	32	27	12	13	1	1	0	stim013_stimuli_original_vehicles_planes_1.png	U	0	0	0	475.37646379997	475.576461499964
115063.25	100	604	16	1	32	28	10	9	0	0	0	stim011_stimuli_original_vehicles_boats_3.png	L	0	0	0	475.77647099999	475.976471400005
115163.25	100	605	16	1	32	29	12	13	1	1	1	stim013_stimuli_original_vehicles_planes_1.png	U	0	0	0	476.176485400007	476.376481499989
115263.25	100	606	16	1	32	30	14	15	0	0	0	stim015_stimuli_original_vehicles_planes_3.png	Y	f	476.768312099972	1	476.576492499968	476.776493599988
115363.25	100	607	16	1	32	31	15	10	0	0	0	stim016_stimuli_original_vehicles_planes_4.png	Q	0	0	0	476.976505899976	477.176532599959
115463.25	100	608	16	1	32	32	4	12	0	0	0	stim005_stimuli_original_animals_fish_1.png	T	0	0	0	477.376514500007	477.576514799963
115563.25	100	609	16	1	32	33	11	4	0	0	0	stim012_stimuli_original_vehicles_boats_4.png	E	0	0	0	477.776553299977	477.976524199999
115663.25	100	610	16	1	32	34	5	1	0	0	0	stim006_stimuli_original_animals_fish_2.png	B	0	0	0	478.176536799991	478.376540899975
115763.25	100	611	16	1	32	35	7	5	0	0	0	stim008_stimuli_original_animals_fish_4.png	F	0	0	0	478.57654759998	478.776546899986
119484.25	100	612	17	0	17	0	0	5	0	0	0	stim001_stimuli_original_animals_birds_1.png	F	0	0	0	493.460314799973	493.660308399994
119584.25	100	613	17	0	17	1	4	12	0	0	0	stim005_stimuli_original_animals_fish_1.png	T	0	0	0	493.860326799972	494.060322200006
119684.25	100	614	17	0	17	2	13	7	0	0	0	stim014_stimuli_original_vehicles_planes_2.png	J	0	0	0	494.260337899963	494.460327799956
119784.25	100	615	17	0	17	3	7	9	0	0	0	stim008_stimuli_original_animals_fish_4.png	L	0	0	0	494.660321099975	494.860339499952
119884.25	100	616	17	0	17	4	15	3	0	0	0	stim016_stimuli_original_vehicles_planes_4.png	D	0	0	0	495.060369099956	495.260349799995
119984.25	100	617	17	0	17	5	5	8	0	0	0	stim006_stimuli_original_animals_fish_2.png	K	0	0	0	495.460338399978	495.660334699962
120084.25	100	618	17	0	17	6	2	14	0	0	0	stim003_stimuli_original_animals_birds_3.png	V	0	0	0	495.860343599983	496.060345100006
120184.25	100	619	17	0	17	7	13	6	1	0	0	stim014_stimuli_original_vehicles_planes_2.png	G	0	0	0	496.260355599981	496.460355399991
120284.25	100	620	17	0	17	8	12	12	0	1	0	stim013_stimuli_original_vehicles_planes_1.png	T	0	0	0	496.660364899959	496.860363999964
120384.25	100	621	17	0	17	9	13	10	1	0	1	stim014_stimuli_original_vehicles_planes_2.png	Q	0	0	0	497.060375900008	497.260380499996
120484.25	100	622	17	0	17	10	6	12	0	1	0	stim007_stimuli_original_animals_fish_3.png	T	0	0	0	497.460387700005	497.660386500007
120584.25	100	623	17	0	17	11	11	11	0	0	0	stim012_stimuli_original_vehicles_boats_4.png	R	f	497.852944499988	1	497.860396899981	498.060402399977
120684.25	100	624	17	0	17	12	8	1	0	0	0	stim009_stimuli_original_vehicles_boats_1.png	B	0	0	0	498.260408699978	498.460409099993
120784.25	100	625	17	0	17	13	10	13	0	0	0	stim011_stimuli_original_vehicles_boats_3.png	U	0	0	0	498.660421599983	498.860419899982
120884.25	100	626	17	0	17	14	14	0	0	0	0	stim015_stimuli_original_vehicles_planes_3.png	A	0	0	0	499.060430299956	499.260429399961
120984.25	100	627	17	0	17	15	1	4	0	0	0	stim002_stimuli_original_animals_birds_2.png	E	0	0	0	499.460441700008	499.660440100008
121084.25	100	628	17	0	17	16	9	15	0	0	0	stim010_stimuli_original_vehicles_boats_2.png	Y	0	0	0	499.860451099987	500.060452300007
121184.25	100	629	17	0	17	17	3	2	0	0	0	stim004_stimuli_original_animals_birds_4.png	C	0	0	0	500.260472299997	500.460475299973
121284.25	100	630	17	0	17	18	2	3	0	0	0	stim003_stimuli_original_animals_birds_3.png	D	0	0	0	500.660486299952	500.860487999977
121384.25	100	631	17	0	17	19	15	9	0	0	0	stim016_stimuli_original_vehicles_planes_4.png	L	0	0	0	501.060501099972	501.260496800009
121484.25	100	632	17	0	17	20	4	1	0	0	0	stim005_stimuli_original_animals_fish_1.png	B	0	0	0	501.460494200001	501.660494299955
121584.25	100	633	17	0	17	21	0	14	0	0	0	stim001_stimuli_original_animals_birds_1.png	V	0	0	0	501.860505499993	502.060507299961
121684.25	100	634	17	0	17	22	13	10	0	0	0	stim014_stimuli_original_vehicles_planes_2.png	Q	0	0	0	502.260516299983	502.460516599996
121784.25	100	635	17	0	17	23	1	8	0	0	0	stim002_stimuli_original_animals_birds_2.png	K	0	0	0	502.660529899993	502.860526999983
121884.25	100	636	17	0	17	24	11	11	0	0	0	stim012_stimuli_original_vehicles_boats_4.png	R	0	0	0	503.060546099965	503.260538699978
121984.25	100	637	17	0	17	25	12	6	1	0	0	stim013_stimuli_original_vehicles_planes_1.png	G	0	0	0	503.460573299963	503.660549399967
122084.25	100	638	17	0	17	26	10	13	0	1	0	stim011_stimuli_original_vehicles_boats_3.png	U	0	0	0	503.860560200003	504.060559899954
122184.25	100	639	17	0	17	27	12	12	1	0	1	stim013_stimuli_original_vehicles_planes_1.png	T	0	0	0	504.260568599973	504.46056919999
122284.25	100	640	17	0	17	28	6	13	0	1	0	stim007_stimuli_original_animals_fish_3.png	U	0	0	0	504.660580199969	504.860580799985
122384.25	100	641	17	0	17	29	14	2	0	0	0	stim015_stimuli_original_vehicles_planes_3.png	C	f	505.053141499986	1	505.060590299952	505.260590099962
122484.25	100	642	17	0	17	30	8	5	0	0	0	stim009_stimuli_original_vehicles_boats_1.png	F	0	0	0	505.460630699992	505.660625699966
122584.25	100	643	17	0	17	31	3	15	0	0	0	stim004_stimuli_original_animals_birds_4.png	Y	0	0	0	505.860621400003	506.060639599978
122684.25	100	644	17	0	17	32	9	7	0	0	0	stim010_stimuli_original_vehicles_boats_2.png	J	0	0	0	506.26064980001	506.460653499991
122784.25	100	645	17	0	17	33	7	13	0	0	0	stim008_stimuli_original_animals_fish_4.png	U	0	0	0	506.660660599999	506.860656999983
122884.25	100	646	17	0	17	34	12	4	0	0	0	stim013_stimuli_original_vehicles_planes_1.png	E	0	0	0	507.060670299979	507.260672799952
122984.25	100	647	17	0	17	35	5	0	0	0	0	stim006_stimuli_original_animals_fish_2.png	A	0	0	0	507.460669599997	507.660683800001
124609.25	100	648	18	1	17	0	0	5	0	0	0	stim001_stimuli_original_animals_birds_1.png	F	0	0	0	513.960864599969	514.160859700001
124709.25	100	649	18	1	17	1	4	12	0	0	0	stim005_stimuli_original_animals_fish_1.png	T	0	0	0	514.360866000003	514.560869999987
124809.25	100	650	18	1	17	2	13	7	0	0	0	stim014_stimuli_original_vehicles_planes_2.png	J	0	0	0	514.760882499977	514.960878299957
124909.25	100	651	18	1	17	3	7	9	0	0	0	stim008_stimuli_original_animals_fish_4.png	L	0	0	0	515.160889799998	515.360885799979
125009.25	100	652	18	1	17	4	15	3	0	0	0	stim016_stimuli_original_vehicles_planes_4.png	D	0	0	0	515.560896799958	515.760888799967
125109.25	100	653	18	1	17	5	5	8	0	0	0	stim006_stimuli_original_animals_fish_2.png	K	0	0	0	515.960908599955	516.160912299994
125209.25	100	654	18	1	17	6	2	14	0	0	0	stim003_stimuli_original_animals_birds_3.png	V	0	0	0	516.360924799985	516.560918100004
125309.25	100	655	18	1	17	7	13	6	1	0	0	stim014_stimuli_original_vehicles_planes_2.png	G	0	0	0	516.760933099955	516.960928699991
125409.25	100	656	18	1	17	8	12	12	0	1	0	stim013_stimuli_original_vehicles_planes_1.png	T	0	0	0	517.160941299982	517.360944399959
125509.5	100	657	18	1	17	9	13	10	1	0	0	stim014_stimuli_original_vehicles_planes_2.png	Q	0	0	0	517.560956200003	517.760956799961
125609.5	100	658	18	1	17	10	6	12	0	1	1	stim007_stimuli_original_animals_fish_3.png	T	0	0	0	517.960969799955	518.160967000003
125709.5	100	659	18	1	17	11	11	11	0	0	0	stim012_stimuli_original_vehicles_boats_4.png	R	f	518.552797499986	1	518.361006499967	518.560980399954
125809.5	100	660	18	1	17	12	8	1	0	0	0	stim009_stimuli_original_vehicles_boats_1.png	B	0	0	0	518.760975599987	518.960975599999
125909.5	100	661	18	1	17	13	10	13	0	0	0	stim011_stimuli_original_vehicles_boats_3.png	U	0	0	0	519.160999399959	519.361002299993
126009.5	100	662	18	1	17	14	14	0	0	0	0	stim015_stimuli_original_vehicles_planes_3.png	A	0	0	0	519.561010500009	519.761008600006
126109.5	100	663	18	1	17	15	1	4	0	0	0	stim002_stimuli_original_animals_birds_2.png	E	0	0	0	519.961020199989	520.161028900009
126209.5	100	664	18	1	17	16	9	15	0	0	0	stim010_stimuli_original_vehicles_boats_2.png	Y	0	0	0	520.361032199988	520.561034999962
126309.5	100	665	18	1	17	17	3	2	0	0	0	stim004_stimuli_original_animals_birds_4.png	C	0	0	0	520.761042799975	520.961044600001
126409.5	100	666	18	1	17	18	2	3	0	0	0	stim003_stimuli_original_animals_birds_3.png	D	0	0	0	521.161047499976	521.361052099965
126509.5	100	667	18	1	17	19	15	9	0	0	0	stim016_stimuli_original_vehicles_planes_4.png	L	0	0	0	521.561062299996	521.761066799983
126609.5	100	668	18	1	17	20	4	1	0	0	0	stim005_stimuli_original_animals_fish_1.png	B	0	0	0	521.961077699962	522.161078699981
126709.5	100	669	18	1	17	21	0	14	0	0	0	stim001_stimuli_original_animals_birds_1.png	V	0	0	0	522.361087800004	522.561087199952
126809.5	100	670	18	1	17	22	13	10	0	0	0	stim014_stimuli_original_vehicles_planes_2.png	Q	0	0	0	522.761097899987	522.961097399995
126909.5	100	671	18	1	17	23	1	8	0	0	0	stim002_stimuli_original_animals_birds_2.png	K	0	0	0	523.161087899993	523.361106499971
127009.5	100	672	18	1	17	24	11	11	0	0	0	stim012_stimuli_original_vehicles_boats_4.png	R	0	0	0	523.561127899971	523.761115600006
127109.5	100	673	18	1	17	25	12	6	1	0	0	stim013_stimuli_original_vehicles_planes_1.png	G	0	0	0	523.961128900002	524.161129599961
127209.5	100	674	18	1	17	26	10	13	0	1	0	stim011_stimuli_original_vehicles_boats_3.png	U	0	0	0	524.361139099987	524.561140300008
127309.5	100	675	18	1	17	27	12	12	1	0	0	stim013_stimuli_original_vehicles_planes_1.png	T	0	0	0	524.761154000007	524.961149199982
127409.5	100	676	18	1	17	28	6	13	0	1	1	stim007_stimuli_original_animals_fish_3.png	U	0	0	0	525.161158700008	525.36115479999
127509.5	100	677	18	1	17	29	14	2	0	0	0	stim015_stimuli_original_vehicles_planes_3.png	C	f	525.752967100008	1	525.561171299953	525.761156999972
127609.5	100	678	18	1	17	30	8	5	0	0	0	stim009_stimuli_original_vehicles_boats_1.png	F	0	0	0	525.961184699961	526.161180399999
127709.5	100	679	18	1	17	31	3	15	0	0	0	stim004_stimuli_original_animals_birds_4.png	Y	0	0	0	526.361194199999	526.561175599985
127809.5	100	680	18	1	17	32	9	7	0	0	0	stim010_stimuli_original_vehicles_boats_2.png	J	0	0	0	526.761203199974	526.961203599989
127909.5	100	681	18	1	17	33	7	13	0	0	0	stim008_stimuli_original_animals_fish_4.png	U	0	0	0	527.161213899963	527.36121469998
128009.5	100	682	18	1	17	34	12	4	0	0	0	stim013_stimuli_original_vehicles_planes_1.png	E	0	0	0	527.561224500008	527.761225699971
128109.5	100	683	18	1	17	35	5	0	0	0	0	stim006_stimuli_original_animals_fish_2.png	A	0	0	0	527.961236800009	528.161237899971
133305.5	100	684	19	0	14	0	9	2	0	0	0	stim010_stimuli_original_vehicles_boats_2.png	C	0	0	0	548.745099799999	548.945102999976
133405.5	100	685	19	0	14	1	8	5	0	0	0	stim009_stimuli_original_vehicles_boats_1.png	F	0	0	0	549.145105000003	549.345107299974
133505.5	100	686	19	0	14	2	11	4	0	0	0	stim012_stimuli_original_vehicles_boats_4.png	E	0	0	0	549.545117800008	549.745123100001
133605.5	100	687	19	0	14	3	1	0	0	0	0	stim002_stimuli_original_animals_birds_2.png	A	0	0	0	549.945127399988	550.145128200005
133705.5	100	688	19	0	14	4	14	12	0	0	0	stim015_stimuli_original_vehicles_planes_3.png	T	0	0	0	550.345140399993	550.54516509996
133805.5	100	689	19	0	14	5	13	13	0	0	0	stim014_stimuli_original_vehicles_planes_2.png	U	0	0	0	550.745148499962	550.945151499996
133905.5	100	690	19	0	14	6	6	10	0	0	0	stim007_stimuli_original_animals_fish_3.png	Q	0	0	0	551.145180399995	551.345160399971
134005.5	100	691	19	0	14	7	12	8	0	1	0	stim013_stimuli_original_vehicles_planes_1.png	K	0	0	0	551.545174399973	551.745171099959
134105.5	100	692	19	0	14	8	4	15	0	0	0	stim005_stimuli_original_animals_fish_1.png	Y	0	0	0	551.945181899995	552.145181300002
134205.5	100	693	19	0	14	9	2	8	0	1	0	stim003_stimuli_original_animals_birds_3.png	K	0	0	0	552.345193199988	552.545193600003
134305.5	100	694	19	0	14	10	11	7	1	0	0	stim012_stimuli_original_vehicles_boats_4.png	J	0	0	0	552.745203799976	552.945202199975
134405.5	100	695	19	0	14	11	3	1	0	0	0	stim004_stimuli_original_animals_birds_4.png	B	0	0	0	553.145239199977	553.345211899956
134505.5	100	696	19	0	14	12	11	6	1	0	1	stim012_stimuli_original_vehicles_boats_4.png	G	0	0	0	553.545225299953	553.745245800004
134605.5	100	697	19	0	14	13	10	8	0	0	0	stim011_stimuli_original_vehicles_boats_3.png	K	0	0	0	553.945234199986	554.14523580001
134705.5	100	698	19	0	14	14	15	3	0	0	0	stim016_stimuli_original_vehicles_planes_4.png	D	0	0	0	554.345247999998	554.545244199981
134805.5	100	699	19	0	14	15	7	14	0	0	0	stim008_stimuli_original_animals_fish_4.png	V	0	0	0	554.745255999966	554.945256799983
134905.5	100	700	19	0	14	16	5	11	0	0	0	stim006_stimuli_original_animals_fish_2.png	R	0	0	0	555.145265600004	555.345268799982
135005.5	100	701	19	0	14	17	0	9	0	0	0	stim001_stimuli_original_animals_birds_1.png	L	0	0	0	555.545278000005	555.745290399995
135105.5	100	702	19	0	14	18	9	0	0	0	0	stim010_stimuli_original_vehicles_boats_2.png	A	0	0	0	555.945288599993	556.145287399995
135205.5	100	703	19	0	14	19	11	5	0	0	0	stim012_stimuli_original_vehicles_boats_4.png	F	0	0	0	556.345312199963	556.545298099983
135305.5	100	704	19	0	14	20	14	7	0	0	0	stim015_stimuli_original_vehicles_planes_3.png	J	0	0	0	556.745310899976	556.945308699971
135405.5	100	705	19	0	14	21	3	15	0	0	0	stim004_stimuli_original_animals_birds_4.png	Y	0	0	0	557.145321099961	557.34532079997
135505.5	100	706	19	0	14	22	8	10	0	0	0	stim009_stimuli_original_vehicles_boats_1.png	Q	0	0	0	557.5453309	557.745331499958
135605.5	100	707	19	0	14	23	6	11	0	1	0	stim007_stimuli_original_animals_fish_3.png	R	0	0	0	557.945385999978	558.145340699994
135705.5	100	708	19	0	14	24	1	3	0	0	0	stim002_stimuli_original_animals_birds_2.png	D	0	0	0	558.345354799996	558.545352899993
135805.5	100	709	19	0	14	25	7	11	0	1	0	stim008_stimuli_original_animals_fish_4.png	R	0	0	0	558.745363499969	558.945367899956
135905.5	100	710	19	0	14	26	8	2	1	0	0	stim009_stimuli_original_vehicles_boats_1.png	C	0	0	0	559.145373999956	559.345373999968
136005.5	100	711	19	0	14	27	15	4	0	0	0	stim016_stimuli_original_vehicles_planes_4.png	E	0	0	0	559.545384099998	559.745384699956
136105.5	100	712	19	0	14	28	8	12	1	0	1	stim009_stimuli_original_vehicles_boats_1.png	T	0	0	0	559.94539389998	560.145396599954
136205.5	100	713	19	0	14	29	10	6	0	0	0	stim011_stimuli_original_vehicles_boats_3.png	G	f	560.537207999965	1	560.34540749999	560.545437199995
136305.5	100	714	19	0	14	30	13	13	0	0	0	stim014_stimuli_original_vehicles_planes_2.png	U	0	0	0	560.745416799968	560.945417399984
136405.5	100	715	19	0	14	31	12	14	0	0	0	stim013_stimuli_original_vehicles_planes_1.png	V	0	0	0	561.145460099971	561.345428799978
136505.5	100	716	19	0	14	32	0	1	0	0	0	stim001_stimuli_original_animals_birds_1.png	B	0	0	0	561.545439299953	561.745440899977
136605.5	100	717	19	0	14	33	4	11	0	0	0	stim005_stimuli_original_animals_fish_1.png	R	0	0	0	561.945447899983	562.145448099996
136705.5	100	718	19	0	14	34	5	8	0	0	0	stim006_stimuli_original_animals_fish_2.png	K	0	0	0	562.345461899997	562.545460199995
136805.5	100	719	19	0	14	35	2	9	0	0	0	stim003_stimuli_original_animals_birds_3.png	L	0	0	0	562.745471799979	562.945470199978
141534.75	100	720	20	1	15	0	10	5	0	0	0	stim011_stimuli_original_vehicles_boats_3.png	F	0	0	0	581.662645899982	581.862645199988
141634.75	100	721	20	1	15	1	9	10	0	0	0	stim010_stimuli_original_vehicles_boats_2.png	Q	0	0	0	582.0626835	582.262672299985
141734.75	100	722	20	1	15	2	15	6	0	0	0	stim016_stimuli_original_vehicles_planes_4.png	G	0	0	0	582.462669099972	582.662678199995
141834.75	100	723	20	1	15	3	0	11	0	0	0	stim001_stimuli_original_animals_birds_1.png	R	0	0	0	582.8626774	583.062690599996
141934.75	100	724	20	1	15	4	1	4	0	0	0	stim002_stimuli_original_animals_birds_2.png	E	0	0	0	583.262687499984	583.462686899991
142034.75	100	725	20	1	15	5	7	2	0	1	0	stim008_stimuli_original_animals_fish_4.png	C	0	0	0	583.662697299966	583.862702199956
142134.75	100	726	20	1	15	6	4	3	0	0	0	stim005_stimuli_original_animals_fish_1.png	D	0	0	0	584.062710999977	584.262708699971
142234.75	100	727	20	1	15	7	2	2	0	1	1	stim003_stimuli_original_animals_birds_3.png	C	0	0	0	584.46271990001	584.662731699995
142334.75	100	728	20	1	15	8	8	7	0	0	0	stim009_stimuli_original_vehicles_boats_1.png	J	f	585.054524699983	1	584.862731000001	585.062731499958
142434.75	100	729	20	1	15	9	7	14	1	0	0	stim008_stimuli_original_animals_fish_4.png	V	0	0	0	585.262756399985	585.462742000003
142534.75	100	730	20	1	15	10	12	2	0	0	0	stim013_stimuli_original_vehicles_planes_1.png	C	0	0	0	585.662751699972	585.862756299961
142634.75	100	731	20	1	15	11	7	0	1	0	0	stim008_stimuli_original_animals_fish_4.png	A	0	0	0	586.062762399961	586.262763599982
142734.75	100	732	20	1	15	12	11	15	0	0	0	stim012_stimuli_original_vehicles_boats_4.png	Y	0	0	0	586.462774899963	586.662773899967
142834.75	100	733	20	1	15	13	13	8	0	0	0	stim014_stimuli_original_vehicles_planes_2.png	K	0	0	0	586.862797599984	587.062783500005
142934.75	100	734	20	1	15	14	14	12	0	0	0	stim015_stimuli_original_vehicles_planes_3.png	T	0	0	0	587.262799999968	587.462795400003
143034.75	100	735	20	1	15	15	5	9	0	0	0	stim006_stimuli_original_animals_fish_2.png	L	0	0	0	587.662807099987	587.862805699988
143134.75	100	736	20	1	15	16	3	1	0	0	0	stim004_stimuli_original_animals_birds_4.png	B	0	0	0	588.062816299964	588.262815199967
143234.75	100	737	20	1	15	17	6	13	0	0	0	stim007_stimuli_original_animals_fish_3.png	U	0	0	0	588.46282929997	588.66282779997
143334.75	100	738	20	1	15	18	13	6	0	0	0	stim014_stimuli_original_vehicles_planes_2.png	G	0	0	0	588.86283659999	589.062837799953
143434.75	100	739	20	1	15	19	1	3	0	0	0	stim002_stimuli_original_animals_birds_2.png	D	0	0	0	589.262847899983	589.462875399971
143534.75	100	740	20	1	15	20	9	5	0	0	0	stim010_stimuli_original_vehicles_boats_2.png	F	0	0	0	589.662859199976	589.862861300004
143634.75	100	741	20	1	15	21	12	14	0	0	0	stim013_stimuli_original_vehicles_planes_1.png	V	0	0	0	590.062886299973	590.262881200004
143734.75	100	742	20	1	15	22	8	13	0	0	0	stim009_stimuli_original_vehicles_boats_1.png	U	0	0	0	590.462895000004	590.662892599998
143834.75	100	743	20	1	15	23	15	11	0	0	0	stim016_stimuli_original_vehicles_planes_4.png	R	0	0	0	590.862907500006	591.0629051
143934.75	100	744	20	1	15	24	0	7	0	1	0	stim001_stimuli_original_animals_birds_1.png	J	f	591.454711299972	0	591.262915299973	591.462916899996
144034.75	100	745	20	1	15	25	2	12	0	0	0	stim003_stimuli_original_animals_birds_3.png	T	0	0	0	591.662934099964	591.862926199974
144134.75	100	746	20	1	15	26	14	7	0	1	1	stim015_stimuli_original_vehicles_planes_3.png	J	0	0	0	592.062959400006	592.262934900005
144234.75	100	747	20	1	15	27	7	8	0	0	0	stim008_stimuli_original_animals_fish_4.png	K	0	0	0	592.462943799968	592.662949099962
144334.75	100	748	20	1	15	28	2	2	1	0	0	stim003_stimuli_original_animals_birds_3.png	C	0	0	0	592.862957399979	593.06295469997
144434.75	100	749	20	1	15	29	3	4	0	0	0	stim004_stimuli_original_animals_birds_4.png	E	0	0	0	593.262966899958	593.462972000008
144534.75	100	750	20	1	15	30	2	7	1	0	0	stim003_stimuli_original_animals_birds_3.png	J	0	0	0	593.663001799956	593.862976700009
144634.75	100	751	20	1	15	31	4	1	0	0	0	stim005_stimuli_original_animals_fish_1.png	B	0	0	0	594.062987699988	594.2629877
144734.75	100	752	20	1	15	32	11	0	0	0	0	stim012_stimuli_original_vehicles_boats_4.png	A	f	594.654792599962	0	594.462998999981	594.663011399971
144834.75	100	753	20	1	15	33	6	15	0	0	0	stim007_stimuli_original_animals_fish_3.png	Y	0	0	0	594.863009099965	595.063011899998
144934.75	100	754	20	1	15	34	10	9	0	0	0	stim011_stimuli_original_vehicles_boats_3.png	L	0	0	0	595.263026600005	595.463019499963
145034.75	100	755	20	1	15	35	5	10	0	0	0	stim006_stimuli_original_animals_fish_2.png	Q	0	0	0	595.663036299986	595.863032799971
147589	100	756	21	0	24	0	10	8	0	0	0	stim011_stimuli_original_vehicles_boats_3.png	K	0	0	0	605.880015100003	606.079986099969
147689	100	757	21	0	24	1	12	11	0	0	0	stim013_stimuli_original_vehicles_planes_1.png	R	0	0	0	606.279968899966	606.479996399954
147789	100	758	21	0	24	2	3	10	0	0	0	stim004_stimuli_original_animals_birds_4.png	Q	0	0	0	606.680025499954	606.880010099965
147889	100	759	21	0	24	3	4	13	0	0	0	stim005_stimuli_original_animals_fish_1.png	U	0	0	0	607.080017999979	607.28003689996
147989	100	760	21	0	24	4	14	12	0	0	0	stim015_stimuli_original_vehicles_planes_3.png	T	0	0	0	607.480032699998	607.680028499977
148089	100	761	21	0	24	5	5	3	0	0	0	stim006_stimuli_original_animals_fish_2.png	D	0	0	0	607.880041499971	608.080023999966
148189	100	762	21	0	24	6	0	15	0	1	0	stim001_stimuli_original_animals_birds_1.png	Y	0	0	0	608.280050600006	608.48005329998
148289	100	763	21	0	24	7	15	9	0	0	0	stim016_stimuli_original_vehicles_planes_4.png	L	0	0	0	608.68005679996	608.880053800007
148389	100	764	21	0	24	8	12	15	1	1	0	stim013_stimuli_original_vehicles_planes_1.png	Y	0	0	0	609.0800743	609.280072699999
148489	100	765	21	0	24	9	1	4	0	0	0	stim002_stimuli_original_animals_birds_2.png	E	0	0	0	609.480072899954	609.680086899956
148589	100	766	21	0	24	10	12	6	1	0	1	stim013_stimuli_original_vehicles_planes_1.png	G	0	0	0	609.880097199988	610.080095099984
148689	100	767	21	0	24	11	9	2	0	0	0	stim010_stimuli_original_vehicles_boats_2.png	C	0	0	0	610.280088800006	610.480106099974
148789	100	768	21	0	24	12	8	15	0	0	0	stim009_stimuli_original_vehicles_boats_1.png	Y	f	610.871908499976	1	610.680114899995	610.880115599954
148889	100	769	21	0	24	13	7	7	0	0	0	stim008_stimuli_original_animals_fish_4.png	J	0	0	0	611.080125299981	611.280127100006
148989	100	770	21	0	24	14	13	1	0	0	0	stim014_stimuli_original_vehicles_planes_2.png	B	0	0	0	611.480136999977	611.680109299952
149089	100	771	21	0	24	15	6	14	0	0	0	stim007_stimuli_original_animals_fish_3.png	V	0	0	0	611.880121299997	612.080124699976
149189	100	772	21	0	24	16	11	0	0	0	0	stim012_stimuli_original_vehicles_boats_4.png	A	0	0	0	612.280129599967	612.48012839997
149289	100	773	21	0	24	17	2	5	0	0	0	stim003_stimuli_original_animals_birds_3.png	F	0	0	0	612.680139400007	612.880138699955
149389	100	774	21	0	24	18	5	2	0	0	0	stim006_stimuli_original_animals_fish_2.png	C	0	0	0	613.080148599984	613.280150599952
149489	100	775	21	0	24	19	0	11	0	0	0	stim001_stimuli_original_animals_birds_1.png	R	0	0	0	613.480162099993	613.68016019999
149589	100	776	21	0	24	20	14	6	0	0	0	stim015_stimuli_original_vehicles_planes_3.png	G	0	0	0	613.880174899998	614.080186199979
149689	100	777	21	0	24	21	1	13	0	0	0	stim002_stimuli_original_animals_birds_2.png	U	0	0	0	614.280182899965	614.480181099963
149789	100	778	21	0	24	22	7	7	0	0	0	stim008_stimuli_original_animals_fish_4.png	J	0	0	0	614.680202599964	614.880192199955
149889	100	779	21	0	24	23	15	8	0	0	0	stim016_stimuli_original_vehicles_planes_4.png	K	0	0	0	615.080203999998	615.280204599956
149989	100	780	21	0	24	24	2	9	0	0	0	stim003_stimuli_original_animals_birds_3.png	L	0	0	0	615.480214299983	615.680214699998
150089.25	100	781	21	0	24	25	6	12	0	1	0	stim007_stimuli_original_animals_fish_3.png	T	0	0	0	615.880226299982	616.080225299986
150189.25	100	782	21	0	24	26	4	1	0	0	0	stim005_stimuli_original_animals_fish_1.png	B	0	0	0	616.280273399956	616.480233499955
150289.25	100	783	21	0	24	27	15	12	1	1	0	stim016_stimuli_original_vehicles_planes_4.png	T	0	0	0	616.680252099992	616.880245599954
150389.25	100	784	21	0	24	28	9	15	0	0	0	stim010_stimuli_original_vehicles_boats_2.png	Y	0	0	0	617.080255899986	617.280257899954
150489.25	100	785	21	0	24	29	15	0	1	0	1	stim016_stimuli_original_vehicles_planes_4.png	A	0	0	0	617.480267299979	617.6802685
150589.25	100	786	21	0	24	30	3	5	0	0	0	stim004_stimuli_original_animals_birds_4.png	F	0	0	0	617.880278899975	618.080278599984
150689.25	100	787	21	0	24	31	12	14	0	0	0	stim013_stimuli_original_vehicles_planes_1.png	V	0	0	0	618.280311699957	618.480290699983
150789.25	100	788	21	0	24	32	13	4	0	0	0	stim014_stimuli_original_vehicles_planes_2.png	E	0	0	0	618.680298199994	618.880325599981
150889.25	100	789	21	0	24	33	10	3	0	0	0	stim011_stimuli_original_vehicles_boats_3.png	D	0	0	0	619.080310599995	619.280311299954
150989.25	100	790	21	0	24	34	11	12	0	0	0	stim012_stimuli_original_vehicles_boats_4.png	T	0	0	0	619.480339500005	619.680322200002
151089.25	100	791	21	0	24	35	8	10	0	0	0	stim009_stimuli_original_vehicles_boats_1.png	Q	0	0	0	619.880331599968	620.080331499979
153835	100	792	22	1	40	0	15	3	0	0	0	stim016_stimuli_original_vehicles_planes_4.png	D	0	0	0	630.864016300009	631.064007699955
153935	100	793	22	1	40	1	5	6	0	0	0	stim006_stimuli_original_animals_fish_2.png	G	0	0	0	631.264019499999	631.464021399966
154035	100	794	22	1	40	2	6	12	0	0	0	stim007_stimuli_original_animals_fish_3.png	T	0	0	0	631.664040700009	631.864033199963
154135	100	795	22	1	40	3	12	11	0	0	0	stim013_stimuli_original_vehicles_planes_1.png	R	0	0	0	632.064043399994	632.264019099995
154235	100	796	22	1	40	4	3	1	0	0	0	stim004_stimuli_original_animals_birds_4.png	B	0	0	0	632.464029799972	632.664028399973
154335	100	797	22	1	40	5	10	7	0	0	0	stim011_stimuli_original_vehicles_boats_3.png	J	0	0	0	632.864038800006	633.064040499972
