onset	duration	eventnumber	sequencenumber	condition	streamnumber	stimnumber	objectstimnumber	letterstimnumber	objecttarget	lettertarget	is2back	objectstim	letterstim	response	rt	correct	time_stimon	time_stimoff
10208.25	100	0	0	1	2	0	2	10	0	0	0	stim003_stimuli_original_animals_birds_3.png	Q	0	0	0	69.7249787999317	69.9249755998608
10308.5	100	1	0	1	2	1	11	6	0	0	0	stim012_stimuli_original_vehicles_boats_4.png	G	0	0	0	70.1253446999472	70.3249651999213
10408.25	100	2	0	1	2	2	0	8	0	0	0	stim001_stimuli_original_animals_birds_1.png	K	0	0	0	70.5249727999326	70.7249727000017
10508.25	100	3	0	1	2	3	4	9	0	0	0	stim005_stimuli_original_animals_fish_1.png	L	0	0	0	70.924980700016	71.1249843998812
10608.25	100	4	0	1	2	4	12	11	0	0	0	stim013_stimuli_original_vehicles_planes_1.png	R	0	0	0	71.324992199894	71.5249917998444
10708.25	100	5	0	1	2	5	9	4	0	0	0	stim010_stimuli_original_vehicles_boats_2.png	E	0	0	0	71.7250037000049	71.9250006000511
10808.25	100	6	0	1	2	6	5	7	0	1	0	stim006_stimuli_original_animals_fish_2.png	J	0	0	0	72.125039699953	72.3250114000402
10908.25	100	7	0	1	2	7	7	2	0	0	0	stim008_stimuli_original_animals_fish_4.png	C	0	0	0	72.5250264999922	72.7250214999076
11008.25	100	8	0	1	2	8	3	7	0	1	1	stim004_stimuli_original_animals_birds_4.png	J	0	0	0	72.9250349998474	73.12503320002
11108.25	100	9	0	1	2	9	12	1	1	0	0	stim013_stimuli_original_vehicles_planes_1.png	B	d	73.5168522000313	1	73.325045599835	73.525045099901
11208.25	100	10	0	1	2	10	6	0	0	0	0	stim007_stimuli_original_animals_fish_3.png	A	0	0	0	73.7250734998379	73.9250667998567
11308.25	100	11	0	1	2	11	12	3	1	0	0	stim013_stimuli_original_vehicles_planes_1.png	D	0	0	0	74.125092000002	74.3250774999615
11408.25	100	12	0	1	2	12	14	15	0	0	0	stim015_stimuli_original_vehicles_planes_3.png	Y	0	0	0	74.5250858999789	74.7250881998334
11508.25	100	13	0	1	2	13	13	7	0	0	0	stim014_stimuli_original_vehicles_planes_2.png	J	0	0	0	74.9250984999817	75.1251042999793
11608.25	100	14	0	1	2	14	10	13	0	0	0	stim011_stimuli_original_vehicles_boats_3.png	U	d	75.5169281000271	0	75.3251109998673	75.525361899985
11708.25	100	15	0	1	2	15	1	12	0	0	0	stim002_stimuli_original_animals_birds_2.png	T	0	0	0	75.7251252999995	75.9251208999194
11808.25	100	16	0	1	2	16	15	5	0	0	0	stim016_stimuli_original_vehicles_planes_4.png	F	0	0	0	76.125130499946	76.3251300998963
11908.25	100	17	0	1	2	17	8	14	0	0	0	stim009_stimuli_original_vehicles_boats_1.png	V	0	0	0	76.5251438999549	76.7251401999965
12008.25	100	18	0	1	2	18	14	8	0	0	0	stim015_stimuli_original_vehicles_planes_3.png	K	0	0	0	76.925155099947	77.1251536000054
12108.25	100	19	0	1	2	19	5	15	0	0	0	stim006_stimuli_original_animals_fish_2.png	Y	0	0	0	77.3251638000365	77.5251656000037
12208.25	100	20	0	1	2	20	12	1	0	0	0	stim013_stimuli_original_vehicles_planes_1.png	B	d	77.9169816998765	0	77.7251734999008	77.9251746998634
12308.25	100	21	0	1	2	21	13	10	0	0	0	stim014_stimuli_original_vehicles_planes_2.png	Q	0	0	0	78.1251827999949	78.3251838998403
12408.25	100	22	0	1	2	22	7	13	0	0	0	stim008_stimuli_original_animals_fish_4.png	U	0	0	0	78.5251980999019	78.7251923999283
12508.25	100	23	0	1	2	23	15	14	0	0	0	stim016_stimuli_original_vehicles_planes_4.png	V	0	0	0	78.9252056998666	79.1252041000407
12608.25	100	24	0	1	2	24	3	12	0	1	0	stim004_stimuli_original_animals_birds_4.png	T	0	0	0	79.3252165999729	79.5252141999081
12708.25	100	25	0	1	2	25	0	6	0	0	0	stim001_stimuli_original_animals_birds_1.png	G	0	0	0	79.7252282998525	79.9252267999109
12808.25	100	26	0	1	2	26	1	12	0	1	1	stim002_stimuli_original_animals_birds_2.png	T	0	0	0	80.1252345999237	80.3252355000004
12908.25	100	27	0	1	2	27	7	3	1	0	0	stim008_stimuli_original_animals_fish_4.png	D	d	80.7170593000483	1	80.5252518998459	80.7252457998693
13008.25	100	28	0	1	2	28	2	7	0	0	0	stim003_stimuli_original_animals_birds_3.png	J	0	0	0	80.9252575000282	81.1252578999847
13108.25	100	29	0	1	2	29	7	5	1	0	0	stim008_stimuli_original_animals_fish_4.png	F	0	0	0	81.3252673998941	81.5252694999799
13208.25	100	30	0	1	2	30	4	9	0	0	0	stim005_stimuli_original_animals_fish_1.png	L	0	0	0	81.7252791998908	81.9252835998777
13308.25	100	31	0	1	2	31	11	12	0	0	0	stim012_stimuli_original_vehicles_boats_4.png	T	0	0	0	82.1252919998951	82.325288800057
13408.25	100	32	0	1	2	32	9	4	0	0	0	stim010_stimuli_original_vehicles_boats_2.png	E	0	0	0	82.5253004999831	82.7252897999715
13508.25	100	33	0	1	2	33	8	0	0	0	0	stim009_stimuli_original_vehicles_boats_1.png	A	0	0	0	82.9253131998703	83.1253090000246
13608.25	100	34	0	1	2	34	6	11	0	0	0	stim007_stimuli_original_animals_fish_3.png	R	0	0	0	83.3253224999644	83.5253192000091
13708.25	100	35	0	1	2	35	10	2	0	0	0	stim011_stimuli_original_vehicles_boats_3.png	C	0	0	0	83.7253221999854	83.9253235999495
14537.5	100	36	1	0	25	0	6	13	0	0	0	stim007_stimuli_original_animals_fish_3.png	U	d	87.0347808999941	0	87.0420746998861	87.2420741999522
14637.5	100	37	1	0	25	1	10	7	0	0	0	stim011_stimuli_original_vehicles_boats_3.png	J	0	0	0	87.4420837999787	87.6420839999337
14737.5	100	38	1	0	25	2	12	15	0	0	0	stim013_stimuli_original_vehicles_planes_1.png	Y	0	0	0	87.8421111998614	88.0421047999989
14837.5	100	39	1	0	25	3	3	12	0	0	0	stim004_stimuli_original_animals_birds_4.png	T	0	0	0	88.2421078998595	88.4421037000138
14937.5	100	40	1	0	25	4	2	14	0	0	0	stim003_stimuli_original_animals_birds_3.png	V	0	0	0	88.6421187999658	88.8421159000136
15037.5	100	41	1	0	25	5	4	1	1	0	0	stim005_stimuli_original_animals_fish_1.png	B	0	0	0	89.0421321999747	89.242126399884
15137.5	100	42	1	0	25	6	9	0	0	0	0	stim010_stimuli_original_vehicles_boats_2.png	A	0	0	0	89.4421367000323	89.6421381998807
15237.5	100	43	1	0	25	7	4	6	1	0	1	stim005_stimuli_original_animals_fish_1.png	G	0	0	0	89.8421493999194	90.0421493998729
15337.5	100	44	1	0	25	8	5	4	0	0	0	stim006_stimuli_original_animals_fish_2.png	E	d	90.4339502998628	1	90.2421579000074	90.4421587998513
15437.5	100	45	1	0	25	9	13	2	0	0	0	stim014_stimuli_original_vehicles_planes_2.png	C	0	0	0	90.6421662999783	90.8421687998343
15537.5	100	46	1	0	25	10	8	7	0	1	0	stim009_stimuli_original_vehicles_boats_1.png	J	0	0	0	91.042182300007	91.2421782999299
15637.5	100	47	1	0	25	11	4	11	0	0	0	stim005_stimuli_original_animals_fish_1.png	R	0	0	0	91.4421892999671	91.6421926999465
15737.5	100	48	1	0	25	12	14	7	0	1	0	stim015_stimuli_original_vehicles_planes_3.png	J	d	91.8347545999568	1	91.8422003998421	92.0422012999188
15837.5	100	49	1	0	25	13	11	9	0	0	0	stim012_stimuli_original_vehicles_boats_4.png	L	0	0	0	92.2422113998327	92.4422116999049
15937.5	100	50	1	0	25	14	7	3	0	0	0	stim008_stimuli_original_animals_fish_4.png	D	0	0	0	92.642221899936	92.8422234000172
16037.5	100	51	1	0	25	15	1	10	0	0	0	stim002_stimuli_original_animals_birds_2.png	Q	0	0	0	93.042232299922	93.2422362000216
16137.5	100	52	1	0	25	16	0	5	0	0	0	stim001_stimuli_original_animals_birds_1.png	F	0	0	0	93.4422426999081	93.6422442998737
16237.5	100	53	1	0	25	17	15	8	0	0	0	stim016_stimuli_original_vehicles_planes_4.png	K	0	0	0	93.8422532000113	94.0422529999632
16337.5	100	54	1	0	25	18	8	15	0	0	0	stim009_stimuli_original_vehicles_boats_1.png	Y	0	0	0	94.2422640000004	94.4422683999874
16437.5	100	55	1	0	25	19	5	0	0	0	0	stim006_stimuli_original_animals_fish_2.png	A	0	0	0	94.6422748998739	94.8422761999536
16537.5	100	56	1	0	25	20	10	1	0	0	0	stim011_stimuli_original_vehicles_boats_3.png	B	0	0	0	95.0422870998736	95.2422884998377
16637.5	100	57	1	0	25	21	3	7	0	0	0	stim004_stimuli_original_animals_birds_4.png	J	0	0	0	95.4422979999799	95.6422995999455
16737.5	100	58	1	0	25	22	9	11	0	0	0	stim010_stimuli_original_vehicles_boats_2.png	R	0	0	0	95.8423074998427	96.042307500029
16837.5	100	59	1	0	25	23	7	14	1	0	0	stim008_stimuli_original_animals_fish_4.png	V	0	0	0	96.2423182998318	96.4423187000211
16937.5	100	60	1	0	25	24	11	4	0	0	0	stim012_stimuli_original_vehicles_boats_4.png	E	0	0	0	96.6423297000583	96.8423280999996
17037.5	100	61	1	0	25	25	7	8	1	0	1	stim008_stimuli_original_animals_fish_4.png	K	0	0	0	97.0423371000215	97.2423380999826
17137.5	100	62	1	0	25	26	2	13	0	0	0	stim003_stimuli_original_animals_birds_3.png	U	0	0	0	97.4423499999102	97.6423522999976
17237.5	100	63	1	0	25	27	4	5	0	0	0	stim005_stimuli_original_animals_fish_1.png	F	0	0	0	97.8423595998902	98.0423599998467
17337.75	100	64	1	0	25	28	6	4	0	1	0	stim007_stimuli_original_animals_fish_3.png	E	0	0	0	98.2423708999995	98.4423706999514
17437.75	100	65	1	0	25	29	0	9	0	0	0	stim001_stimuli_original_animals_birds_1.png	L	0	0	0	98.6423815998714	98.8423834999558
17537.75	100	66	1	0	25	30	1	4	0	1	0	stim002_stimuli_original_animals_birds_2.png	E	0	0	0	99.0423911998514	99.2423922999296
17637.75	100	67	1	0	25	31	14	2	0	0	0	stim015_stimuli_original_vehicles_planes_3.png	C	0	0	0	99.4424025998451	99.6424016000237
17737.75	100	68	1	0	25	32	12	3	0	0	0	stim013_stimuli_original_vehicles_planes_1.png	D	0	0	0	99.842414499959	100.042414000025
17837.75	100	69	1	0	25	33	15	12	0	0	0	stim016_stimuli_original_vehicles_planes_4.png	T	0	0	0	100.242425199831	100.44242420001
17937.75	100	70	1	0	25	34	7	10	0	0	0	stim008_stimuli_original_animals_fish_4.png	Q	0	0	0	100.642434899928	100.842436299892
18037.75	100	71	1	0	25	35	13	6	0	0	0	stim014_stimuli_original_vehicles_planes_2.png	G	0	0	0	101.042445699917	101.242446199991
18637.75	100	72	2	1	24	0	12	4	0	0	0	stim013_stimuli_original_vehicles_planes_1.png	E	0	0	0	103.442524999846	103.642511300044
18737.75	100	73	2	1	24	1	2	7	0	0	0	stim003_stimuli_original_animals_birds_3.png	J	0	0	0	103.84252299997	104.04252119991
18837.75	100	74	2	1	24	2	6	12	0	0	0	stim007_stimuli_original_animals_fish_3.png	T	0	0	0	104.242530700052	104.442532599904
18937.75	100	75	2	1	24	3	4	0	0	0	0	stim005_stimuli_original_animals_fish_1.png	A	0	0	0	104.642546299845	104.842542700004
19037.75	100	76	2	1	24	4	8	2	0	0	0	stim009_stimuli_original_vehicles_boats_1.png	C	0	0	0	105.042553399922	105.242553499993
19137.75	100	77	2	1	24	5	3	13	0	0	0	stim004_stimuli_original_animals_birds_4.png	U	0	0	0	105.442561999895	105.642563399859
19237.75	100	78	2	1	24	6	0	5	0	1	0	stim001_stimuli_original_animals_birds_1.png	F	0	0	0	105.842577500036	106.042572499951
19337.75	100	79	2	1	24	7	13	11	0	0	0	stim014_stimuli_original_vehicles_planes_2.png	R	0	0	0	106.242584999884	106.442583699943
19437.75	100	80	2	1	24	8	9	5	0	1	1	stim010_stimuli_original_vehicles_boats_2.png	F	0	0	0	106.642595099984	106.842597999843
19537.75	100	81	2	1	24	9	0	14	1	0	0	stim001_stimuli_original_animals_birds_1.png	V	d	107.242907699896	1	107.042613799917	107.24260509992
19637.75	100	82	2	1	24	10	1	9	0	0	0	stim002_stimuli_original_animals_birds_2.png	L	0	0	0	107.442616799846	107.642623099964
19737.75	100	83	2	1	24	11	0	1	1	0	0	stim001_stimuli_original_animals_birds_1.png	B	0	0	0	107.842632599873	108.042627499904
19837.75	100	84	2	1	24	12	15	8	0	0	0	stim016_stimuli_original_vehicles_planes_4.png	K	0	0	0	108.242639499949	108.442639699904
19937.75	100	85	2	1	24	13	10	5	0	0	0	stim011_stimuli_original_vehicles_boats_3.png	F	0	0	0	108.642652299954	108.842652899912
20037.75	100	86	2	1	24	14	11	15	0	0	0	stim012_stimuli_original_vehicles_boats_4.png	Y	d	109.234457300045	0	109.042659200029	109.242658999981
20137.75	100	87	2	1	24	15	5	6	0	0	0	stim006_stimuli_original_animals_fish_2.png	G	0	0	0	109.442671600031	109.642671299865
20237.75	100	88	2	1	24	16	14	3	0	0	0	stim015_stimuli_original_vehicles_planes_3.png	D	0	0	0	109.842682600021	110.042685899884
20337.75	100	89	2	1	24	17	7	10	0	0	0	stim008_stimuli_original_animals_fish_4.png	Q	0	0	0	110.242691799998	110.442692699842
20437.75	100	90	2	1	24	18	10	7	0	0	0	stim011_stimuli_original_vehicles_boats_3.png	J	0	0	0	110.64270769991	110.842707599979
20537.75	100	91	2	1	24	19	3	14	0	0	0	stim004_stimuli_original_animals_birds_4.png	V	0	0	0	111.042720299913	111.242718999973
20637.75	100	92	2	1	24	20	6	5	0	0	0	stim007_stimuli_original_animals_fish_3.png	F	0	0	0	111.442730699899	111.642727499828
20737.75	100	93	2	1	24	21	15	11	0	0	0	stim016_stimuli_original_vehicles_planes_4.png	R	0	0	0	111.842747499933	112.042739499826
20837.75	100	94	2	1	24	22	5	10	0	0	0	stim006_stimuli_original_animals_fish_2.png	Q	0	0	0	112.242749499856	112.442744399887
20937.75	100	95	2	1	24	23	8	15	0	0	0	stim009_stimuli_original_vehicles_boats_1.png	Y	0	0	0	112.642752599902	112.842769099865
21037.75	100	96	2	1	24	24	1	0	0	1	0	stim002_stimuli_original_animals_birds_2.png	A	0	0	0	113.042777299881	113.242776399944
21137.75	100	97	2	1	24	25	9	1	0	0	0	stim010_stimuli_original_vehicles_boats_2.png	B	0	0	0	113.442788299872	113.642787500052
21237.75	100	98	2	1	24	26	14	0	0	1	1	stim015_stimuli_original_vehicles_planes_3.png	A	0	0	0	113.842799799982	114.042798199924
21337.75	100	99	2	1	24	27	5	9	1	0	0	stim006_stimuli_original_animals_fish_2.png	L	d	114.434606899973	1	114.242809599964	114.442808799911
21437.75	100	100	2	1	24	28	11	13	0	0	0	stim012_stimuli_original_vehicles_boats_4.png	U	0	0	0	114.64282209985	114.842822100036
21537.75	100	101	2	1	24	29	5	0	1	0	0	stim006_stimuli_original_animals_fish_2.png	A	0	0	0	115.042830700055	115.242829399882
21637.75	100	102	2	1	24	30	13	3	0	0	0	stim014_stimuli_original_vehicles_planes_2.png	D	0	0	0	115.442830899963	115.64282920002
21737.75	100	103	2	1	24	31	2	8	0	0	0	stim003_stimuli_original_animals_birds_3.png	K	0	0	0	115.84284009994	116.042840400012
21837.75	100	104	2	1	24	32	0	4	0	0	0	stim001_stimuli_original_animals_birds_1.png	E	0	0	0	116.24284969992	116.442853299901
21937.75	100	105	2	1	24	33	12	6	0	0	0	stim013_stimuli_original_vehicles_planes_1.png	G	0	0	0	116.642861600034	116.842860899866
22037.75	100	106	2	1	24	34	7	2	0	0	0	stim008_stimuli_original_animals_fish_4.png	C	0	0	0	117.042871800018	117.242872899864
22137.75	100	107	2	1	24	35	4	12	0	0	0	stim005_stimuli_original_animals_fish_1.png	T	0	0	0	117.442883499898	117.642882699845
22696	100	108	3	0	20	0	6	15	0	0	0	stim007_stimuli_original_animals_fish_3.png	Y	0	0	0	119.676312699914	119.876277899835
22796	100	109	3	0	20	1	0	14	0	0	0	stim001_stimuli_original_animals_birds_1.png	V	0	0	0	120.076285799965	120.276287999935
22896	100	110	3	0	20	2	12	1	0	0	0	stim013_stimuli_original_vehicles_planes_1.png	B	0	0	0	120.476297899848	120.67629870004
22996	100	111	3	0	20	3	2	8	0	0	0	stim003_stimuli_original_animals_birds_3.png	K	0	0	0	120.876307399943	121.076309799915
23096	100	112	3	0	20	4	4	7	0	0	0	stim005_stimuli_original_animals_fish_1.png	J	0	0	0	121.276317900047	121.476320199901
23196	100	113	3	0	20	5	9	12	0	0	0	stim010_stimuli_original_vehicles_boats_2.png	T	0	0	0	121.676328500034	121.876369699836
23296	100	114	3	0	20	6	1	0	0	0	0	stim002_stimuli_original_animals_birds_2.png	A	0	0	0	122.07634099992	122.276344399899
23396	100	115	3	0	20	7	3	2	0	0	0	stim004_stimuli_original_animals_birds_4.png	C	0	0	0	122.476350799901	122.676348399837
23496	100	116	3	0	20	8	10	3	0	0	0	stim011_stimuli_original_vehicles_boats_3.png	D	0	0	0	122.876363399904	123.076361299958
23596	100	117	3	0	20	9	13	5	0	0	0	stim014_stimuli_original_vehicles_planes_2.png	F	0	0	0	123.276370499982	123.476371299941
23696	100	118	3	0	20	10	9	0	1	1	0	stim010_stimuli_original_vehicles_boats_2.png	A	0	0	0	123.676381799858	123.87638209993
23796	100	119	3	0	20	11	11	10	0	0	0	stim012_stimuli_original_vehicles_boats_4.png	Q	0	0	0	124.076393899973	124.276392000029
23896	100	120	3	0	20	12	9	0	1	1	1	stim010_stimuli_original_vehicles_boats_2.png	A	0	0	0	124.476431299932	124.676403600024
23996	100	121	3	0	20	13	5	11	0	0	0	stim006_stimuli_original_animals_fish_2.png	R	0	0	0	124.87641269993	125.076429199893
24096	100	122	3	0	20	14	8	9	0	0	0	stim009_stimuli_original_vehicles_boats_1.png	L	d	125.269133599941	1	125.27643759991	125.476448999951
24196	100	123	3	0	20	15	15	4	0	0	0	stim016_stimuli_original_vehicles_planes_4.png	E	0	0	0	125.676447900012	125.876446699956
24296.25	100	124	3	0	20	16	14	6	0	0	0	stim015_stimuli_original_vehicles_planes_3.png	G	0	0	0	126.076460300013	126.27645759983
24396	100	125	3	0	20	17	7	13	0	0	0	stim008_stimuli_original_animals_fish_4.png	U	0	0	0	126.476467899978	126.67646820005
24496.25	100	126	3	0	20	18	13	7	0	0	0	stim014_stimuli_original_vehicles_planes_2.png	J	0	0	0	126.876479299972	127.076478200033
24596.25	100	127	3	0	20	19	6	14	0	0	0	stim007_stimuli_original_animals_fish_3.png	V	0	0	0	127.276489499956	127.476488200016
24696.25	100	128	3	0	20	20	4	15	0	0	0	stim005_stimuli_original_animals_fish_1.png	Y	0	0	0	127.676499800058	127.876499899896
24796.25	100	129	3	0	20	21	9	8	0	0	0	stim010_stimuli_original_vehicles_boats_2.png	K	0	0	0	128.07651049993	128.276510600001
24896.25	100	130	3	0	20	22	11	5	0	0	0	stim012_stimuli_original_vehicles_boats_4.png	F	0	0	0	128.476527999854	128.676510500023
24996.25	100	131	3	0	20	23	0	9	1	1	0	stim001_stimuli_original_animals_birds_1.png	L	0	0	0	128.87652099994	129.076545499964
25096.25	100	132	3	0	20	24	10	11	0	0	0	stim011_stimuli_original_vehicles_boats_3.png	R	0	0	0	129.27652970003	129.476531099994
25196.25	100	133	3	0	20	25	0	9	1	1	1	stim001_stimuli_original_animals_birds_1.png	L	0	0	0	129.676541799912	129.87654099986
25296.25	100	134	3	0	20	26	5	13	0	0	0	stim006_stimuli_original_animals_fish_2.png	U	d	130.268345999997	1	130.076551100006	130.27655459987
25396.25	100	135	3	0	20	27	3	10	0	0	0	stim004_stimuli_original_animals_birds_4.png	Q	0	0	0	130.47656339989	130.676561999833
25496.25	100	136	3	0	20	28	2	3	0	0	0	stim003_stimuli_original_animals_birds_3.png	D	0	0	0	130.876575100003	131.076573399827
25596.25	100	137	3	0	20	29	0	1	0	0	0	stim001_stimuli_original_animals_birds_1.png	B	0	0	0	131.27658779989	131.476584200049
25696.25	100	138	3	0	20	30	12	9	0	0	0	stim013_stimuli_original_vehicles_planes_1.png	L	0	0	0	131.676596699981	131.876597699942
25796.25	100	139	3	0	20	31	7	4	0	0	0	stim008_stimuli_original_animals_fish_4.png	E	0	0	0	132.076605599839	132.276609899942
25896.25	100	140	3	0	20	32	8	2	0	0	0	stim009_stimuli_original_vehicles_boats_1.png	C	0	0	0	132.476615899941	132.676616600016
25996.25	100	141	3	0	20	33	1	12	0	0	0	stim002_stimuli_original_animals_birds_2.png	T	0	0	0	132.876628699945	133.076628099894
26096.25	100	142	3	0	20	34	14	0	0	0	0	stim015_stimuli_original_vehicles_planes_3.png	A	0	0	0	133.276638600044	133.476639099885
26196.25	100	143	3	0	20	35	15	6	0	0	0	stim016_stimuli_original_vehicles_planes_4.png	G	0	0	0	133.676654099952	133.876649399986
26767	100	144	4	1	38	0	6	12	0	0	0	stim007_stimuli_original_animals_fish_3.png	T	0	0	0	135.960080499994	136.160069299862
26867	100	145	4	1	38	1	3	9	0	0	0	stim004_stimuli_original_animals_birds_4.png	L	0	0	0	136.360077299876	136.560085699894
26967	100	146	4	1	38	2	4	0	0	0	0	stim005_stimuli_original_animals_fish_1.png	A	0	0	0	136.760087299859	136.960089199943
27067	100	147	4	1	38	3	1	7	0	0	0	stim002_stimuli_original_animals_birds_2.png	J	0	0	0	137.160106099909	137.360104599968
27167	100	148	4	1	38	4	14	15	0	0	0	stim015_stimuli_original_vehicles_planes_3.png	Y	0	0	0	137.560116299894	137.760089899879
27267	100	149	4	1	38	5	6	8	1	0	0	stim007_stimuli_original_animals_fish_3.png	K	0	0	0	137.960125099868	138.160126399947
27367	100	150	4	1	38	6	10	14	0	0	0	stim011_stimuli_original_vehicles_boats_3.png	V	0	0	0	138.360131700058	138.560137799941
27467	100	151	4	1	38	7	6	3	1	0	0	stim007_stimuli_original_animals_fish_3.png	D	d	138.752742700046	0	138.760147799971	138.960146599915
27567	100	152	4	1	38	8	9	1	0	1	0	stim010_stimuli_original_vehicles_boats_2.png	B	0	0	0	139.160158999963	139.360157199902
27667	100	153	4	1	38	9	7	10	0	0	0	stim008_stimuli_original_animals_fish_4.png	Q	0	0	0	139.560167900054	139.760169999907
27767	100	154	4	1	38	10	13	1	0	1	1	stim014_stimuli_original_vehicles_planes_2.png	B	0	0	0	139.96017919993	140.160181900021
27867	100	155	4	1	38	11	11	5	0	0	0	stim012_stimuli_original_vehicles_boats_4.png	F	0	0	0	140.360211799853	140.560188799864
27967	100	156	4	1	38	12	0	2	0	0	0	stim001_stimuli_original_animals_birds_1.png	C	0	0	0	140.760188899934	140.960200199857
28067	100	157	4	1	38	13	2	13	0	0	0	stim003_stimuli_original_animals_birds_3.png	U	0	0	0	141.160211500013	141.360210999846
28167	100	158	4	1	38	14	5	11	0	0	0	stim006_stimuli_original_animals_fish_2.png	R	0	0	0	141.56022069999	141.760219099931
28267	100	159	4	1	38	15	8	6	0	0	0	stim009_stimuli_original_vehicles_boats_1.png	G	0	0	0	141.960231199861	142.160233199829
28367	100	160	4	1	38	16	12	4	0	0	0	stim013_stimuli_original_vehicles_planes_1.png	E	0	0	0	142.36024199985	142.560244499939
28467	100	161	4	1	38	17	15	1	0	0	0	stim016_stimuli_original_vehicles_planes_4.png	B	0	0	0	142.760252399836	142.960260099964
28567	100	162	4	1	38	18	1	15	0	0	0	stim002_stimuli_original_animals_birds_2.png	Y	0	0	0	143.160259499913	143.360247599892
28667	100	163	4	1	38	19	4	12	0	0	0	stim005_stimuli_original_animals_fish_1.png	T	0	0	0	143.560278399847	143.760275200009
28767	100	164	4	1	38	20	6	8	0	0	0	stim007_stimuli_original_animals_fish_3.png	K	0	0	0	143.96028489992	144.160284299869
28867	100	165	4	1	38	21	11	5	0	0	0	stim012_stimuli_original_vehicles_boats_4.png	F	0	0	0	144.360295200022	144.560319999931
28967	100	166	4	1	38	22	13	2	0	0	0	stim014_stimuli_original_vehicles_planes_2.png	C	0	0	0	144.760308400029	144.960307499859
29067	100	167	4	1	38	23	2	0	0	0	0	stim003_stimuli_original_animals_birds_3.png	A	0	0	0	145.160318099894	145.360302599845
29167	100	168	4	1	38	24	5	11	0	0	0	stim006_stimuli_original_animals_fish_2.png	R	0	0	0	145.560327799991	145.760313599836
29267	100	169	4	1	38	25	1	13	1	0	0	stim002_stimuli_original_animals_birds_2.png	U	0	0	0	145.960323999869	146.160339199938
29367	100	170	4	1	38	26	10	7	0	0	0	stim011_stimuli_original_vehicles_boats_3.png	J	0	0	0	146.360349899856	146.560353299836
29467	100	171	4	1	38	27	1	9	1	0	0	stim002_stimuli_original_animals_birds_2.png	L	0	0	0	146.760359599954	146.960345800035
29567	100	172	4	1	38	28	3	6	0	1	0	stim004_stimuli_original_animals_birds_4.png	G	0	0	0	147.160370999947	147.360373500036
29667	100	173	4	1	38	29	14	10	0	0	0	stim015_stimuli_original_vehicles_planes_3.png	Q	0	0	0	147.560379100032	147.760364499874
29767	100	174	4	1	38	30	8	6	0	1	1	stim009_stimuli_original_vehicles_boats_1.png	G	0	0	0	147.960391799919	148.160396599909
29867	100	175	4	1	38	31	15	14	0	0	0	stim016_stimuli_original_vehicles_planes_4.png	V	d	148.552200299921	1	148.360410899855	148.560408500023
29967	100	176	4	1	38	32	7	1	0	0	0	stim008_stimuli_original_animals_fish_4.png	B	0	0	0	148.760422199965	148.960417099996
30067	100	177	4	1	38	33	0	4	0	0	0	stim001_stimuli_original_animals_birds_1.png	E	0	0	0	149.160415099934	149.360428999877
30167	100	178	4	1	38	34	9	3	0	0	0	stim010_stimuli_original_vehicles_boats_2.png	D	0	0	0	149.56043730001	149.760442199884
30267	100	179	4	1	38	35	12	6	0	0	0	stim013_stimuli_original_vehicles_planes_1.png	G	0	0	0	149.960451399907	150.160449799849
31158.75	100	180	5	0	12	0	13	13	0	0	0	stim014_stimuli_original_vehicles_planes_2.png	U	0	0	0	153.527183600003	153.727178999921
31258.75	100	181	5	0	12	1	0	11	0	0	0	stim001_stimuli_original_animals_birds_1.png	R	0	0	0	153.927191299852	154.127192500047
31358.75	100	182	5	0	12	2	12	9	0	0	0	stim013_stimuli_original_vehicles_planes_1.png	L	0	0	0	154.32720379997	154.527204799931
31458.75	100	183	5	0	12	3	6	8	0	0	0	stim007_stimuli_original_animals_fish_3.png	K	0	0	0	154.72721339995	154.927213999908
31558.75	100	184	5	0	12	4	8	3	1	0	0	stim009_stimuli_original_vehicles_boats_1.png	D	0	0	0	155.127223999938	155.327222399879
31658.75	100	185	5	0	12	5	4	14	0	0	0	stim005_stimuli_original_animals_fish_1.png	V	0	0	0	155.527233100031	155.727234399877
31758.75	100	186	5	0	12	6	8	12	1	0	1	stim009_stimuli_original_vehicles_boats_1.png	T	0	0	0	155.927258400014	156.127243699972
31858.75	100	187	5	0	12	7	15	8	0	1	0	stim016_stimuli_original_vehicles_planes_4.png	K	0	0	0	156.327254100004	156.527257199865
31958.75	100	188	5	0	12	8	2	0	0	0	0	stim003_stimuli_original_animals_birds_3.png	A	0	0	0	156.727265999885	156.927268399857
32058.75	100	189	5	0	12	9	11	8	0	1	0	stim012_stimuli_original_vehicles_boats_4.png	K	0	0	0	157.127277099993	157.327277299948
32158.75	100	190	5	0	12	10	8	1	0	0	0	stim009_stimuli_original_vehicles_boats_1.png	B	0	0	0	157.527287399862	157.727287499933
32258.75	100	191	5	0	12	11	5	2	0	0	0	stim006_stimuli_original_animals_fish_2.png	C	0	0	0	157.927298099967	158.127298899926
32358.75	100	192	5	0	12	12	14	6	0	0	0	stim015_stimuli_original_vehicles_planes_3.png	G	0	0	0	158.327311499976	158.527308800025
32458.75	100	193	5	0	12	13	10	7	0	0	0	stim011_stimuli_original_vehicles_boats_3.png	J	0	0	0	158.727317400044	158.927320499904
32558.75	100	194	5	0	12	14	1	10	0	0	0	stim002_stimuli_original_animals_birds_2.png	Q	0	0	0	159.127329299925	159.327329299878
32658.75	100	195	5	0	12	15	7	15	0	0	0	stim008_stimuli_original_animals_fish_4.png	Y	0	0	0	159.527369600022	159.727341299877
32758.75	100	196	5	0	12	16	9	4	0	0	0	stim010_stimuli_original_vehicles_boats_2.png	E	0	0	0	159.927352000028	160.12735129986
32858.75	100	197	5	0	12	17	3	5	0	0	0	stim004_stimuli_original_animals_birds_4.png	F	0	0	0	160.327362099895	160.527361599961
32958.75	100	198	5	0	12	18	5	3	0	0	0	stim006_stimuli_original_animals_fish_2.png	D	0	0	0	160.7273728	160.927374399966
33058.75	100	199	5	0	12	19	4	9	0	0	0	stim005_stimuli_original_animals_fish_1.png	L	0	0	0	161.127385499887	161.327380799921
33158.75	100	200	5	0	12	20	15	7	0	0	0	stim016_stimuli_original_vehicles_planes_4.png	J	0	0	0	161.527396399993	161.727394500049
33258.75	100	201	5	0	12	21	10	1	0	0	0	stim011_stimuli_original_vehicles_boats_3.png	B	0	0	0	161.927405899856	162.127403900027
33358.75	100	202	5	0	12	22	7	10	0	0	0	stim008_stimuli_original_animals_fish_4.png	Q	0	0	0	162.327414399944	162.527417300036
33458.75	100	203	5	0	12	23	6	14	0	0	0	stim007_stimuli_original_animals_fish_3.png	V	0	0	0	162.727423700038	162.927427799907
33558.75	100	204	5	0	12	24	2	5	0	0	0	stim003_stimuli_original_animals_birds_3.png	F	0	0	0	163.127436399926	163.327436899999
33658.75	100	205	5	0	12	25	1	8	0	0	0	stim002_stimuli_original_animals_birds_2.png	K	0	0	0	163.527447999921	163.727469200036
33758.75	100	206	5	0	12	26	8	11	1	0	0	stim009_stimuli_original_vehicles_boats_1.png	R	0	0	0	163.927461300045	164.127458499977
33858.75	100	207	5	0	12	27	0	2	0	0	0	stim001_stimuli_original_animals_birds_1.png	C	0	0	0	164.327474500053	164.527470299974
33958.75	100	208	5	0	12	28	8	15	1	0	1	stim009_stimuli_original_vehicles_boats_1.png	Y	0	0	0	164.727477099979	164.927481399849
34058.75	100	209	5	0	12	29	12	8	0	1	0	stim013_stimuli_original_vehicles_planes_1.png	K	0	0	0	165.12749330001	165.327495299978
34158.75	100	210	5	0	12	30	14	4	0	0	0	stim015_stimuli_original_vehicles_planes_3.png	E	s	165.520057299873	1	165.527499699965	165.727501899935
34258.75	100	211	5	0	12	31	3	8	0	1	0	stim004_stimuli_original_animals_birds_4.png	K	0	0	0	165.927525099833	166.127524399897
34358.75	100	212	5	0	12	32	8	6	0	0	0	stim009_stimuli_original_vehicles_boats_1.png	G	0	0	0	166.327533799922	166.527535199886
34458.75	100	213	5	0	12	33	9	12	0	0	0	stim010_stimuli_original_vehicles_boats_2.png	T	0	0	0	166.72754490003	166.927534899907
34558.75	100	214	5	0	12	34	11	0	0	0	0	stim012_stimuli_original_vehicles_boats_4.png	A	s	167.319336900022	0	167.127542499918	167.327545000007
34658.75	100	215	5	0	12	35	13	13	0	0	0	stim014_stimuli_original_vehicles_planes_2.png	U	0	0	0	167.527557000052	167.727552599972
35213	100	216	6	1	26	0	6	14	0	0	0	stim007_stimuli_original_animals_fish_3.png	V	0	0	0	169.74432129995	169.944309799932
35313	100	217	6	1	26	1	7	2	0	0	0	stim008_stimuli_original_animals_fish_4.png	C	0	0	0	170.144322699867	170.344300800003
35413	100	218	6	1	26	2	9	12	0	0	0	stim010_stimuli_original_vehicles_boats_2.png	T	0	0	0	170.544297999935	170.744299500016
35513	100	219	6	1	26	3	11	0	0	0	0	stim012_stimuli_original_vehicles_boats_4.png	A	0	0	0	170.944314999972	171.144310599891
35613	100	220	6	1	26	4	1	5	0	0	0	stim002_stimuli_original_animals_birds_2.png	F	0	0	0	171.344321100041	171.544320399873
35713	100	221	6	1	26	5	4	1	0	0	0	stim005_stimuli_original_animals_fish_1.png	B	0	0	0	171.744343099883	171.944332999876
35813	100	222	6	1	26	6	13	4	0	0	0	stim014_stimuli_original_vehicles_planes_2.png	E	0	0	0	172.144342399901	172.344343599863
35913	100	223	6	1	26	7	11	15	1	0	0	stim012_stimuli_original_vehicles_boats_4.png	Y	0	0	0	172.544390100054	172.744352399837
36013	100	224	6	1	26	8	5	10	0	0	0	stim006_stimuli_original_animals_fish_2.png	Q	0	0	0	172.944365500007	173.144366599852
36113	100	225	6	1	26	9	11	11	1	0	0	stim012_stimuli_original_vehicles_boats_4.png	R	0	0	0	173.344373899978	173.544374099933
36213	100	226	6	1	26	10	14	3	0	0	0	stim015_stimuli_original_vehicles_planes_3.png	D	0	0	0	173.74438509997	173.944384099916
36313	100	227	6	1	26	11	2	6	0	0	0	stim003_stimuli_original_animals_birds_3.png	G	0	0	0	174.144399699988	174.344395899912
36413	100	228	6	1	26	12	8	1	0	1	0	stim009_stimuli_original_vehicles_boats_1.png	B	0	0	0	174.544438199839	174.744437200017
36513	100	229	6	1	26	13	0	8	0	0	0	stim001_stimuli_original_animals_birds_1.png	K	0	0	0	174.944447800051	175.144446399994
36613	100	230	6	1	26	14	12	1	0	1	1	stim013_stimuli_original_vehicles_planes_1.png	B	0	0	0	175.344455200015	175.544458599994
36713	100	231	6	1	26	15	10	9	0	0	0	stim011_stimuli_original_vehicles_boats_3.png	L	s	175.936255399836	1	175.744464499876	175.944465799956
36813	100	232	6	1	26	16	3	13	0	0	0	stim004_stimuli_original_animals_birds_4.png	U	0	0	0	176.144482699921	176.344476100057
36913	100	233	6	1	26	17	15	7	0	0	0	stim016_stimuli_original_vehicles_planes_4.png	J	0	0	0	176.544518099865	176.74448909983
37013	100	234	6	1	26	18	7	15	0	0	0	stim008_stimuli_original_animals_fish_4.png	Y	0	0	0	176.944498699857	177.144500699826
37113	100	235	6	1	26	19	13	3	0	0	0	stim014_stimuli_original_vehicles_planes_2.png	D	0	0	0	177.344508199953	177.544504099991
37213	100	236	6	1	26	20	9	10	0	0	0	stim010_stimuli_original_vehicles_boats_2.png	Q	0	0	0	177.744527899893	177.944521700032
37313	100	237	6	1	26	21	1	12	1	0	0	stim002_stimuli_original_animals_birds_2.png	T	0	0	0	178.144530300051	178.344530900009
37413	100	238	6	1	26	22	8	0	0	0	0	stim009_stimuli_original_vehicles_boats_1.png	A	0	0	0	178.544542300049	178.744543999899
37513	100	239	6	1	26	23	1	8	1	0	0	stim002_stimuli_original_animals_birds_2.png	K	0	0	0	178.944552999921	179.144552299986
37613	100	240	6	1	26	24	6	2	0	0	0	stim007_stimuli_original_animals_fish_3.png	C	0	0	0	179.344559999881	179.54456509999
37713	100	241	6	1	26	25	3	14	0	0	0	stim004_stimuli_original_animals_birds_4.png	V	0	0	0	179.74457339989	179.944572799839
37813	100	242	6	1	26	26	11	11	0	1	0	stim012_stimuli_original_vehicles_boats_4.png	R	0	0	0	180.144584999885	180.344582899939
37913	100	243	6	1	26	27	10	5	0	0	0	stim011_stimuli_original_vehicles_boats_3.png	F	0	0	0	180.544594899984	180.744599299971
38013	100	244	6	1	26	28	15	11	0	1	1	stim016_stimuli_original_vehicles_planes_4.png	R	0	0	0	180.944606699981	181.144605499925
38113	100	245	6	1	26	29	4	13	0	0	0	stim005_stimuli_original_animals_fish_1.png	U	s	181.536388200009	1	181.344599799952	181.544614800019
38213.25	100	246	6	1	26	30	1	4	0	0	0	stim002_stimuli_original_animals_birds_2.png	E	0	0	0	181.744637500029	181.944634999847
38313.25	100	247	6	1	26	31	5	1	0	0	0	stim006_stimuli_original_animals_fish_2.png	B	0	0	0	182.144639499951	182.34463629988
38413.25	100	248	6	1	26	32	0	11	0	0	0	stim001_stimuli_original_animals_birds_1.png	R	0	0	0	182.54464769992	182.744631799869
38513.25	100	249	6	1	26	33	12	9	0	0	0	stim013_stimuli_original_vehicles_planes_1.png	L	0	0	0	182.944658800028	183.144656499848
38613.25	100	250	6	1	26	34	2	7	0	0	0	stim003_stimuli_original_animals_birds_3.png	J	0	0	0	183.34466860001	183.544672099873
38713.25	100	251	6	1	26	35	14	6	0	0	0	stim015_stimuli_original_vehicles_planes_3.png	G	0	0	0	183.744681099895	183.94469779986
40629.75	100	252	7	0	40	0	7	8	0	0	0	stim008_stimuli_original_animals_fish_4.png	K	0	0	0	191.411528100027	191.611526999855
40729.75	100	253	7	0	40	1	6	7	0	0	0	stim007_stimuli_original_animals_fish_3.png	J	0	0	0	191.811544599943	192.011536499951
40829.75	100	254	7	0	40	2	10	0	0	0	0	stim011_stimuli_original_vehicles_boats_3.png	A	0	0	0	192.211547599873	192.411546499934
40929.75	100	255	7	0	40	3	9	13	0	0	0	stim010_stimuli_original_vehicles_boats_2.png	U	0	0	0	192.611557199853	192.811557299923
41029.75	100	256	7	0	40	4	13	11	0	0	0	stim014_stimuli_original_vehicles_planes_2.png	R	0	0	0	193.011573299998	193.21156960004
41129.75	100	257	7	0	40	5	14	3	0	0	0	stim015_stimuli_original_vehicles_planes_3.png	D	0	0	0	193.411607299931	193.611615499947
41229.75	100	258	7	0	40	6	15	0	0	1	0	stim016_stimuli_original_vehicles_planes_4.png	A	0	0	0	193.811622099951	194.011622099904
41329.75	100	259	7	0	40	7	12	5	0	0	0	stim013_stimuli_original_vehicles_planes_1.png	F	0	0	0	194.211633499945	194.411631299881
41429.75	100	260	7	0	40	8	0	0	1	1	0	stim001_stimuli_original_animals_birds_1.png	A	0	0	0	194.611643299926	194.8116438
41529.75	100	261	7	0	40	9	4	14	0	0	0	stim005_stimuli_original_animals_fish_1.png	V	0	0	0	195.011651099892	195.21165479999
41629.75	100	262	7	0	40	10	0	4	1	0	1	stim001_stimuli_original_animals_birds_1.png	E	0	0	0	195.411661199993	195.611662599957
41729.75	100	263	7	0	40	11	1	12	0	0	0	stim002_stimuli_original_animals_birds_2.png	T	0	0	0	195.811674600001	196.011674199952
41830	100	264	7	0	40	12	3	2	0	0	0	stim004_stimuli_original_animals_birds_4.png	C	0	0	0	196.211686699884	196.411683700047
41930	100	265	7	0	40	13	5	9	0	0	0	stim006_stimuli_original_animals_fish_2.png	L	0	0	0	196.611694199964	196.811694999924
42030	100	266	7	0	40	14	0	15	0	0	0	stim001_stimuli_original_animals_birds_1.png	Y	0	0	0	197.011704899836	197.211708100047
42130	100	267	7	0	40	15	8	10	0	0	0	stim009_stimuli_original_vehicles_boats_1.png	Q	0	0	0	197.411703799851	197.611716500018
42230	100	268	7	0	40	16	2	6	0	0	0	stim003_stimuli_original_animals_birds_3.png	G	0	0	0	197.811730399961	198.011725899996
42330	100	269	7	0	40	17	11	1	0	0	0	stim012_stimuli_original_vehicles_boats_4.png	B	0	0	0	198.211740599945	198.411731499946
42430	100	270	7	0	40	18	1	11	0	0	0	stim002_stimuli_original_animals_birds_2.png	R	0	0	0	198.611745300004	198.811731399968
42530	100	271	7	0	40	19	6	2	0	0	0	stim007_stimuli_original_animals_fish_3.png	C	0	0	0	199.011755599873	199.211754499935
42630	100	272	7	0	40	20	10	8	0	0	0	stim011_stimuli_original_vehicles_boats_3.png	K	s	199.603559699841	0	199.411765099969	199.611765299924
42730	100	273	7	0	40	21	15	0	0	0	0	stim016_stimuli_original_vehicles_planes_4.png	A	0	0	0	199.811778599862	200.011777699925
42830	100	274	7	0	40	22	9	5	0	0	0	stim010_stimuli_original_vehicles_boats_2.png	F	0	0	0	200.211790999863	200.411788099911
42930	100	275	7	0	40	23	2	3	0	0	0	stim003_stimuli_original_animals_birds_3.png	D	0	0	0	200.611798099941	200.811797600007
43030	100	276	7	0	40	24	12	1	0	0	0	stim013_stimuli_original_vehicles_planes_1.png	B	0	0	0	201.011808000039	201.211808099877
43130	100	277	7	0	40	25	4	0	0	1	0	stim005_stimuli_original_animals_fish_1.png	A	0	0	0	201.411806700053	201.611817499856
43230	100	278	7	0	40	26	14	4	0	0	0	stim015_stimuli_original_vehicles_planes_3.png	E	0	0	0	201.8118294999	202.01183289988
43330	100	279	7	0	40	27	0	0	1	1	0	stim001_stimuli_original_animals_birds_1.png	A	0	0	0	202.211841800017	202.411839599954
43430	100	280	7	0	40	28	5	12	0	0	0	stim006_stimuli_original_animals_fish_2.png	T	0	0	0	202.611855699914	202.811850799946
43530	100	281	7	0	40	29	0	15	1	0	1	stim001_stimuli_original_animals_birds_1.png	Y	0	0	0	203.011862299871	203.211863999953
43630	100	282	7	0	40	30	3	14	0	0	0	stim004_stimuli_original_animals_birds_4.png	V	0	0	0	203.411872199969	203.611877999967
43730	100	283	7	0	40	31	11	13	0	0	0	stim012_stimuli_original_vehicles_boats_4.png	U	s	203.80442449986	1	203.811882099835	204.011883199913
43830	100	284	7	0	40	32	13	9	0	0	0	stim014_stimuli_original_vehicles_planes_2.png	L	0	0	0	204.211892900057	204.411890299991
43930	100	285	7	0	40	33	0	10	0	0	0	stim001_stimuli_original_animals_birds_1.png	Q	0	0	0	204.611900199903	204.811900199857
44030	100	286	7	0	40	34	7	6	0	0	0	stim008_stimuli_original_animals_fish_4.png	G	0	0	0	205.011912399903	205.211910999846
44130	100	287	7	0	40	35	8	7	0	0	0	stim009_stimuli_original_vehicles_boats_1.png	J	0	0	0	205.411925100023	205.611930500017
45180	100	288	8	1	46	0	2	14	0	0	0	stim003_stimuli_original_animals_birds_3.png	V	0	0	0	209.612016999861	209.812011499889
45280	100	289	8	1	46	1	10	6	0	0	0	stim011_stimuli_original_vehicles_boats_3.png	G	0	0	0	210.012022899929	210.212023
45380	100	290	8	1	46	2	7	13	0	0	0	stim008_stimuli_original_animals_fish_4.png	U	0	0	0	210.412035499932	210.61203349987
45480	100	291	8	1	46	3	9	11	0	0	0	stim010_stimuli_original_vehicles_boats_2.png	R	0	0	0	210.812045000028	211.012047099881
45580	100	292	8	1	46	4	3	8	0	0	0	stim004_stimuli_original_animals_birds_4.png	K	0	0	0	211.212058600038	211.412058999995
45680	100	293	8	1	46	5	14	0	0	0	0	stim015_stimuli_original_vehicles_planes_3.png	A	0	0	0	211.612066499889	211.812066499842
45780	100	294	8	1	46	6	6	7	0	0	0	stim007_stimuli_original_animals_fish_3.png	J	0	0	0	212.012079000007	212.212081699865
45880	100	295	8	1	46	7	1	9	0	0	0	stim002_stimuli_original_animals_birds_2.png	L	0	0	0	212.412103099981	212.612086500041
45980	100	296	8	1	46	8	0	12	0	0	0	stim001_stimuli_original_animals_birds_1.png	T	0	0	0	212.812098999973	213.012098500039
46080	100	297	8	1	46	9	14	6	1	1	0	stim015_stimuli_original_vehicles_planes_3.png	G	0	0	0	213.212109199958	213.41211039992
46180	100	298	8	1	46	10	4	5	0	0	0	stim005_stimuli_original_animals_fish_1.png	F	0	0	0	213.612119199941	213.812120399904
46280	100	299	8	1	46	11	14	6	1	1	1	stim015_stimuli_original_vehicles_planes_3.png	G	0	0	0	214.012131100055	214.212128799874
46380	100	300	8	1	46	12	12	1	0	0	0	stim013_stimuli_original_vehicles_planes_1.png	B	s	214.603946499992	1	214.412140799919	214.612142900005
46480	100	301	8	1	46	13	15	3	0	0	0	stim016_stimuli_original_vehicles_planes_4.png	D	0	0	0	214.812151100021	215.012152399868
46580	100	302	8	1	46	14	8	2	0	0	0	stim009_stimuli_original_vehicles_boats_1.png	C	0	0	0	215.212162300013	215.412162399851
46680	100	303	8	1	46	15	5	4	0	0	0	stim006_stimuli_original_animals_fish_2.png	E	0	0	0	215.612177300034	215.812170800054
46780	100	304	8	1	46	16	13	10	0	0	0	stim014_stimuli_original_vehicles_planes_2.png	Q	0	0	0	216.01218369999	216.212182899937
46880	100	305	8	1	46	17	11	15	0	0	0	stim012_stimuli_original_vehicles_boats_4.png	Y	0	0	0	216.412194599863	216.612194699934
46980	100	306	8	1	46	18	15	11	0	0	0	stim016_stimuli_original_vehicles_planes_4.png	R	0	0	0	216.812206599861	217.012207200052
47080	100	307	8	1	46	19	10	13	0	0	0	stim011_stimuli_original_vehicles_boats_3.png	U	0	0	0	217.212216199841	217.412222399842
47180	100	308	8	1	46	20	4	5	0	0	0	stim005_stimuli_original_animals_fish_1.png	F	0	0	0	217.612226699945	217.812226699898
47280	100	309	8	1	46	21	2	8	0	0	0	stim003_stimuli_original_animals_birds_3.png	K	0	0	0	218.012236600043	218.212235999992
47380	100	310	8	1	46	22	3	15	0	0	0	stim004_stimuli_original_animals_birds_4.png	Y	0	0	0	218.412249800051	218.612248799996
47480	100	311	8	1	46	23	1	12	0	0	0	stim002_stimuli_original_animals_birds_2.png	T	0	0	0	218.812257200014	219.012257299852
47580	100	312	8	1	46	24	6	14	1	1	0	stim007_stimuli_original_animals_fish_3.png	V	0	0	0	219.212268899893	219.412269599969
47680	100	313	8	1	46	25	5	4	0	0	0	stim006_stimuli_original_animals_fish_2.png	E	0	0	0	219.612280200003	219.812278799945
47780	100	314	8	1	46	26	6	14	1	1	1	stim007_stimuli_original_animals_fish_3.png	V	0	0	0	220.012294400018	220.212289799936
47880	100	315	8	1	46	27	12	0	0	0	0	stim013_stimuli_original_vehicles_planes_1.png	A	0	0	0	220.412304800004	220.612303099828
47980	100	316	8	1	46	28	9	1	0	0	0	stim010_stimuli_original_vehicles_boats_2.png	B	s	220.804862400051	1	220.812311599962	221.012314999942
48080	100	317	8	1	46	29	7	6	0	0	0	stim008_stimuli_original_animals_fish_4.png	G	0	0	0	221.212322099833	221.412322500022
48180	100	318	8	1	46	30	0	14	0	0	0	stim001_stimuli_original_animals_birds_1.png	V	0	0	0	221.61233529984	221.812331499998
48280	100	319	8	1	46	31	8	3	0	0	0	stim009_stimuli_original_vehicles_boats_1.png	D	0	0	0	222.012343100039	222.212342399871
48380	100	320	8	1	46	32	11	9	0	0	0	stim012_stimuli_original_vehicles_boats_4.png	L	s	222.404902199982	0	222.412353500025	222.612355599878
48480	100	321	8	1	46	33	13	7	0	0	0	stim014_stimuli_original_vehicles_planes_2.png	J	0	0	0	222.812368399929	223.012365699979
48580	100	322	8	1	46	34	6	10	0	0	0	stim007_stimuli_original_animals_fish_3.png	Q	0	0	0	223.212380999932	223.412377199857
48680	100	323	8	1	46	35	14	2	0	0	0	stim015_stimuli_original_vehicles_planes_3.png	C	0	0	0	223.612396599958	223.812386599835
49238.5	100	324	9	0	0	0	9	4	0	0	0	stim010_stimuli_original_vehicles_boats_2.png	E	0	0	0	225.845820999937	226.04581140005
49338.5	100	325	9	0	0	1	13	3	0	0	0	stim014_stimuli_original_vehicles_planes_2.png	D	0	0	0	226.245820999844	226.445815999992
49438.5	100	326	9	0	0	2	4	6	0	0	0	stim005_stimuli_original_animals_fish_1.png	G	0	0	0	226.645813399926	226.845834699925
49538.5	100	327	9	0	0	3	10	1	0	0	0	stim011_stimuli_original_vehicles_boats_3.png	B	0	0	0	227.045837899903	227.245794499991
49638.5	100	328	9	0	0	4	6	5	0	0	0	stim007_stimuli_original_animals_fish_3.png	F	0	0	0	227.445849800017	227.645849899855
49738.5	100	329	9	0	0	5	7	11	0	0	0	stim008_stimuli_original_animals_fish_4.png	R	0	0	0	227.845860200003	228.045858999947
49838.5	100	330	9	0	0	6	1	0	0	0	0	stim002_stimuli_original_animals_birds_2.png	A	0	0	0	228.245870599989	228.445858099964
49938.5	100	331	9	0	0	7	8	8	0	1	0	stim009_stimuli_original_vehicles_boats_1.png	K	0	0	0	228.645880199969	228.845884499839
50038.5	100	332	9	0	0	8	15	9	0	0	0	stim016_stimuli_original_vehicles_planes_4.png	L	0	0	0	229.045892299851	229.245893300045
50138.5	100	333	9	0	0	9	14	8	0	1	0	stim015_stimuli_original_vehicles_planes_3.png	K	0	0	0	229.445901999949	229.645899599884
50238.5	100	334	9	0	0	10	6	15	1	0	0	stim007_stimuli_original_animals_fish_3.png	Y	0	0	0	229.845914899837	230.045913500013
50338.5	100	335	9	0	0	11	5	10	0	0	0	stim006_stimuli_original_animals_fish_2.png	Q	0	0	0	230.245909099933	230.445926500019
50438.5	100	336	9	0	0	12	6	12	1	0	1	stim007_stimuli_original_animals_fish_3.png	T	0	0	0	230.645933399908	230.845934199868
50538.5	100	337	9	0	0	13	12	2	0	0	0	stim013_stimuli_original_vehicles_planes_1.png	C	s	231.237725599902	1	231.045933099929	231.245946299983
50638.5	100	338	9	0	0	14	11	8	0	0	0	stim012_stimuli_original_vehicles_boats_4.png	K	0	0	0	231.445967499865	231.645942199975
50738.5	100	339	9	0	0	15	2	13	0	0	0	stim003_stimuli_original_animals_birds_3.png	U	0	0	0	231.84596639988	232.045971399872
50838.5	100	340	9	0	0	16	3	7	0	0	0	stim004_stimuli_original_animals_birds_4.png	J	0	0	0	232.24597859988	232.445983199868
50938.5	100	341	9	0	0	17	0	14	0	0	0	stim001_stimuli_original_animals_birds_1.png	V	0	0	0	232.645995999919	232.845986499917
51038.5	100	342	9	0	0	18	14	0	0	0	0	stim015_stimuli_original_vehicles_planes_3.png	A	0	0	0	233.045998499962	233.246000699932
51138.5	100	343	9	0	0	19	7	3	0	0	0	stim008_stimuli_original_animals_fish_4.png	D	0	0	0	233.446012299974	233.646011000033
51238.5	100	344	9	0	0	20	13	2	0	0	0	stim014_stimuli_original_vehicles_planes_2.png	C	0	0	0	233.84600879997	234.046020299895
51338.5	100	345	9	0	0	21	8	11	0	0	0	stim009_stimuli_original_vehicles_boats_1.png	R	0	0	0	234.246032899944	234.446032800013
51438.5	100	346	9	0	0	22	2	12	0	0	0	stim003_stimuli_original_animals_birds_3.png	T	0	0	0	234.646044699941	234.846047699917
51538.5	100	347	9	0	0	23	12	6	0	1	0	stim013_stimuli_original_vehicles_planes_1.png	G	0	0	0	235.046050699893	235.246057600016
51638.5	100	348	9	0	0	24	10	5	0	0	0	stim011_stimuli_original_vehicles_boats_3.png	F	0	0	0	235.446062699892	235.646062599961
51738.5	100	349	9	0	0	25	15	6	0	1	0	stim016_stimuli_original_vehicles_planes_4.png	G	0	0	0	235.846073199995	236.046073999954
51838.5	100	350	9	0	0	26	8	14	1	0	0	stim009_stimuli_original_vehicles_boats_1.png	V	0	0	0	236.246090099914	236.446086899843
51938.5	100	351	9	0	0	27	9	15	0	0	0	stim010_stimuli_original_vehicles_boats_2.png	Y	0	0	0	236.646081099985	236.846098399954
52038.5	100	352	9	0	0	28	8	8	1	0	1	stim009_stimuli_original_vehicles_boats_1.png	K	0	0	0	237.046090499964	237.246109399945
52138.5	100	353	9	0	0	29	0	1	0	0	0	stim001_stimuli_original_animals_birds_1.png	B	s	237.637915999861	1	237.446123200003	237.646121699829
52238.5	100	354	9	0	0	30	11	7	0	0	0	stim012_stimuli_original_vehicles_boats_4.png	J	0	0	0	237.846127599943	238.046127399895
52338.5	100	355	9	0	0	31	5	6	0	0	0	stim006_stimuli_original_animals_fish_2.png	G	0	0	0	238.246136300033	238.446139100008
52438.5	100	356	9	0	0	32	1	10	0	0	0	stim002_stimuli_original_animals_birds_2.png	Q	0	0	0	238.64614899992	238.846150099998
52538.5	100	357	9	0	0	33	6	4	0	0	0	stim007_stimuli_original_animals_fish_3.png	E	0	0	0	239.046152199851	239.246160099981
52638.5	100	358	9	0	0	34	3	13	0	0	0	stim004_stimuli_original_animals_birds_4.png	U	0	0	0	239.446169799892	239.64617299987
52738.5	100	359	9	0	0	35	4	9	0	0	0	stim005_stimuli_original_animals_fish_1.png	L	0	0	0	239.846181999892	240.046179299941
53651	100	360	10	1	20	0	6	15	0	0	0	stim007_stimuli_original_animals_fish_3.png	Y	0	0	0	243.496281399857	243.6962778999
53751	100	361	10	1	20	1	0	14	0	0	0	stim001_stimuli_original_animals_birds_1.png	V	0	0	0	243.896301500034	244.096290400019
53851	100	362	10	1	20	2	12	1	0	0	0	stim013_stimuli_original_vehicles_planes_1.png	B	0	0	0	244.296301400056	244.496299799997
53951	100	363	10	1	20	3	2	8	0	0	0	stim003_stimuli_original_animals_birds_3.png	K	0	0	0	244.696283699945	244.89628129988
54051	100	364	10	1	20	4	4	7	0	0	0	stim005_stimuli_original_animals_fish_1.png	J	0	0	0	245.096291499911	245.296297000023
54151	100	365	10	1	20	5	9	12	0	0	0	stim010_stimuli_original_vehicles_boats_2.png	T	0	0	0	245.496316199889	245.69630359998
54251	100	366	10	1	20	6	1	0	0	0	0	stim002_stimuli_original_animals_birds_2.png	A	0	0	0	245.896313499892	246.096314699855
54351	100	367	10	1	20	7	3	2	0	0	0	stim004_stimuli_original_animals_birds_4.png	C	0	0	0	246.296325600008	246.496324699838
54451	100	368	10	1	20	8	10	3	0	0	0	stim011_stimuli_original_vehicles_boats_3.png	D	0	0	0	246.696334299864	246.896335100057
54551	100	369	10	1	20	9	13	5	0	0	0	stim014_stimuli_original_vehicles_planes_2.png	F	0	0	0	247.096346799983	247.296345799929
54651	100	370	10	1	20	10	9	0	1	1	0	stim010_stimuli_original_vehicles_boats_2.png	A	0	0	0	247.496357499855	247.696357199922
54751	100	371	10	1	20	11	11	10	0	0	0	stim012_stimuli_original_vehicles_boats_4.png	Q	0	0	0	247.896375800017	248.096382000018
54851	100	372	10	1	20	12	9	0	1	1	1	stim010_stimuli_original_vehicles_boats_2.png	A	0	0	0	248.29639049992	248.496404999867
54951	100	373	10	1	20	13	5	11	0	0	0	stim006_stimuli_original_animals_fish_2.png	R	s	248.688956599915	1	248.696408599848	248.896410499932
55051	100	374	10	1	20	14	8	9	0	0	0	stim009_stimuli_original_vehicles_boats_1.png	L	0	0	0	249.096401599934	249.29640059988
55151	100	375	10	1	20	15	15	4	0	0	0	stim016_stimuli_original_vehicles_planes_4.png	E	0	0	0	249.496411199914	249.696412599878
55251	100	376	10	1	20	16	14	6	0	0	0	stim015_stimuli_original_vehicles_planes_3.png	G	0	0	0	249.896422700025	250.096423499985
55351	100	377	10	1	20	17	7	13	0	0	0	stim008_stimuli_original_animals_fish_4.png	U	0	0	0	250.29643290001	250.496432799846
55451	100	378	10	1	20	18	13	7	0	0	0	stim014_stimuli_original_vehicles_planes_2.png	J	0	0	0	250.696445199894	250.896444999846
55551	100	379	10	1	20	19	6	14	0	0	0	stim007_stimuli_original_animals_fish_3.png	V	0	0	0	251.096455299994	251.29645689996
55651	100	380	10	1	20	20	4	15	0	0	0	stim005_stimuli_original_animals_fish_1.png	Y	0	0	0	251.496465599863	251.696476700017
55751	100	381	10	1	20	21	9	8	0	0	0	stim010_stimuli_original_vehicles_boats_2.png	K	0	0	0	251.896480900003	252.09649190004
55851	100	382	10	1	20	22	11	5	0	0	0	stim012_stimuli_original_vehicles_boats_4.png	F	0	0	0	252.296499100048	252.496510099852
55951	100	383	10	1	20	23	0	9	1	1	0	stim001_stimuli_original_animals_birds_1.png	L	0	0	0	252.696531799855	252.896534899948
56051	100	384	10	1	20	24	10	11	0	0	0	stim011_stimuli_original_vehicles_boats_3.png	R	0	0	0	253.09655259992	253.296508499887
56151	100	385	10	1	20	25	0	9	1	1	1	stim001_stimuli_original_animals_birds_1.png	L	0	0	0	253.496521200053	253.696522699902
56251	100	386	10	1	20	26	5	13	0	0	0	stim006_stimuli_original_animals_fish_2.png	U	0	0	0	253.896529400023	254.096541399835
56351	100	387	10	1	20	27	3	10	0	0	0	stim004_stimuli_original_animals_birds_4.png	Q	0	0	0	254.296541899908	254.496539999964
56451	100	388	10	1	20	28	2	3	0	0	0	stim003_stimuli_original_animals_birds_3.png	D	0	0	0	254.696552299894	254.896552799968
56551	100	389	10	1	20	29	0	1	0	0	0	stim001_stimuli_original_animals_birds_1.png	B	0	0	0	255.096562799998	255.296561300056
56651	100	390	10	1	20	30	12	9	0	0	0	stim013_stimuli_original_vehicles_planes_1.png	L	0	0	0	255.496572599979	255.696581199998
56751	100	391	10	1	20	31	7	4	0	0	0	stim008_stimuli_original_animals_fish_4.png	E	0	0	0	255.896612399956	256.096595400013
56851	100	392	10	1	20	32	8	2	0	0	0	stim009_stimuli_original_vehicles_boats_1.png	C	0	0	0	256.296593599953	256.496594199911
56951	100	393	10	1	20	33	1	12	0	0	0	stim002_stimuli_original_animals_birds_2.png	T	0	0	0	256.696607099846	256.896605999907
57051	100	394	10	1	20	34	14	0	0	0	0	stim015_stimuli_original_vehicles_planes_3.png	A	0	0	0	257.096616300056	257.296613999875
57151	100	395	10	1	20	35	15	6	0	0	0	stim016_stimuli_original_vehicles_planes_4.png	G	0	0	0	257.496628399938	257.696626599878
57851	100	396	11	0	31	0	3	6	0	0	0	stim004_stimuli_original_animals_birds_4.png	G	0	0	0	260.296716399956	260.496711799875
57951	100	397	11	0	31	1	0	14	0	0	0	stim001_stimuli_original_animals_birds_1.png	V	0	0	0	260.696721599903	260.896724599879
58051	100	398	11	0	31	2	7	10	0	0	0	stim008_stimuli_original_animals_fish_4.png	Q	0	0	0	261.09673079988	261.296732799849
58151	100	399	11	0	31	3	2	2	0	0	0	stim003_stimuli_original_animals_birds_3.png	C	0	0	0	261.496740599861	261.696742199827
58251	100	400	11	0	31	4	9	15	0	0	0	stim010_stimuli_original_vehicles_boats_2.png	Y	0	0	0	261.896741499892	262.09677980002
58351	100	401	11	0	31	5	8	0	0	0	0	stim009_stimuli_original_vehicles_boats_1.png	A	0	0	0	262.296758499928	262.496759000001
58451	100	402	11	0	31	6	15	5	0	0	0	stim016_stimuli_original_vehicles_planes_4.png	F	0	0	0	262.6967823999	262.896775499918
58551	100	403	11	0	31	7	11	11	0	0	0	stim012_stimuli_original_vehicles_boats_4.png	R	0	0	0	263.096782899927	263.296783199999
58651	100	404	11	0	31	8	14	4	0	0	0	stim015_stimuli_original_vehicles_planes_3.png	E	0	0	0	263.496794000035	263.696795699885
58751	100	405	11	0	31	9	12	1	0	0	0	stim013_stimuli_original_vehicles_planes_1.png	B	0	0	0	263.896805000026	264.096804199973
58851	100	406	11	0	31	10	15	12	1	1	0	stim016_stimuli_original_vehicles_planes_4.png	T	0	0	0	264.296817699913	264.496820200002
58951	100	407	11	0	31	11	4	13	0	0	0	stim005_stimuli_original_animals_fish_1.png	U	0	0	0	264.696842300007	264.89682819997
59051	100	408	11	0	31	12	15	12	1	1	1	stim016_stimuli_original_vehicles_planes_4.png	T	0	0	0	265.09683960001	265.296841899864
59151	100	409	11	0	31	13	5	7	0	0	0	stim006_stimuli_original_animals_fish_2.png	J	0	0	0	265.496848299867	265.696848599939
59251	100	410	11	0	31	14	13	9	0	0	0	stim014_stimuli_original_vehicles_planes_2.png	L	s	265.889471599832	1	265.896861099871	266.096856700024
59351	100	411	11	0	31	15	6	12	0	0	0	stim007_stimuli_original_animals_fish_3.png	T	0	0	0	266.296871399973	266.496867500013
59451	100	412	11	0	31	16	10	8	0	0	0	stim011_stimuli_original_vehicles_boats_3.png	K	0	0	0	266.696882199962	266.896909300005
59551	100	413	11	0	31	17	1	3	0	0	0	stim002_stimuli_original_animals_birds_2.png	D	0	0	0	267.096891199937	267.296892500017
59651.25	100	414	11	0	31	18	3	1	0	0	0	stim004_stimuli_original_animals_birds_4.png	B	0	0	0	267.496913299896	267.696894600056
59751.25	100	415	11	0	31	19	8	10	0	0	0	stim009_stimuli_original_vehicles_boats_1.png	Q	0	0	0	267.896906499984	268.096899800003
59851.25	100	416	11	0	31	20	12	6	0	0	0	stim013_stimuli_original_vehicles_planes_1.png	G	0	0	0	268.296915899962	268.496911699884
59951.25	100	417	11	0	31	21	9	13	0	0	0	stim010_stimuli_original_vehicles_boats_2.png	U	0	0	0	268.696925400058	268.896923299879
60051.25	100	418	11	0	31	22	7	5	0	0	0	stim008_stimuli_original_animals_fish_4.png	F	0	0	0	269.096934200032	269.296934199985
60151.25	100	419	11	0	31	23	12	15	1	1	0	stim013_stimuli_original_vehicles_planes_1.png	Y	0	0	0	269.496975200018	269.696944899857
60251.25	100	420	11	0	31	24	13	4	0	0	0	stim014_stimuli_original_vehicles_planes_2.png	E	0	0	0	269.896958600031	270.096970599843
60351.25	100	421	11	0	31	25	12	15	1	1	1	stim013_stimuli_original_vehicles_planes_1.png	Y	0	0	0	270.29696489987	270.496969999978
60451.25	100	422	11	0	31	26	1	12	0	0	0	stim002_stimuli_original_animals_birds_2.png	T	0	0	0	270.696977999993	270.896976900054
60551.25	100	423	11	0	31	27	4	14	0	0	0	stim005_stimuli_original_animals_fish_1.png	V	0	0	0	271.096985699842	271.296988100046
60651.25	100	424	11	0	31	28	11	11	0	0	0	stim012_stimuli_original_vehicles_boats_4.png	R	0	0	0	271.497001499869	271.69699950004
60751.25	100	425	11	0	31	29	5	15	0	0	0	stim006_stimuli_original_animals_fish_2.png	Y	0	0	0	271.897006599931	272.097026800038
60851.25	100	426	11	0	31	30	0	8	0	0	0	stim001_stimuli_original_animals_birds_1.png	K	0	0	0	272.29701739992	272.497020999901
60951.25	100	427	11	0	31	31	15	9	0	0	0	stim016_stimuli_original_vehicles_planes_4.png	L	0	0	0	272.697030900046	272.897029699991
61051.25	100	428	11	0	31	32	2	2	0	0	0	stim003_stimuli_original_animals_birds_3.png	C	0	0	0	273.097040399909	273.297040999867
61151.25	100	429	11	0	31	33	10	7	0	0	0	stim011_stimuli_original_vehicles_boats_3.png	J	0	0	0	273.497050599894	273.697051799856
61251.25	100	430	11	0	31	34	14	0	0	0	0	stim015_stimuli_original_vehicles_planes_3.png	A	0	0	0	273.897061799886	274.097062499961
61351.25	100	431	11	0	31	35	6	3	0	0	0	stim007_stimuli_original_animals_fish_3.png	D	0	0	0	274.297109199921	274.49707279983
61901.25	100	432	12	1	17	0	5	15	0	0	0	stim006_stimuli_original_animals_fish_2.png	Y	0	0	0	276.497161699925	276.697135200026
62001.25	100	433	12	1	17	1	2	13	0	0	0	stim003_stimuli_original_animals_birds_3.png	U	0	0	0	276.897147299955	277.097145200009
62101.25	100	434	12	1	17	2	15	10	0	0	0	stim016_stimuli_original_vehicles_planes_4.png	Q	0	0	0	277.297158099944	277.497156600002
62201.25	100	435	12	1	17	3	14	5	0	0	0	stim015_stimuli_original_vehicles_planes_3.png	F	0	0	0	277.697172999848	277.897167899879
62301.25	100	436	12	1	17	4	8	0	0	0	0	stim009_stimuli_original_vehicles_boats_1.png	A	0	0	0	278.097180499928	278.297177999979
62401.25	100	437	12	1	17	5	3	9	0	0	0	stim004_stimuli_original_animals_birds_4.png	L	0	0	0	278.497188600013	278.69718729984
62501.25	100	438	12	1	17	6	0	2	0	0	0	stim001_stimuli_original_animals_birds_1.png	C	0	0	0	278.897201099899	279.097200399963
62601.25	100	439	12	1	17	7	1	7	1	0	0	stim002_stimuli_original_animals_birds_2.png	J	0	0	0	279.297210399993	279.497211399954
62701.25	100	440	12	1	17	8	10	15	0	1	0	stim011_stimuli_original_vehicles_boats_3.png	Y	0	0	0	279.697220399976	279.897247900022
62801.25	100	441	12	1	17	9	1	14	1	0	0	stim002_stimuli_original_animals_birds_2.png	V	0	0	0	280.097231899854	280.297232999932
62901.25	100	442	12	1	17	10	4	15	0	1	1	stim005_stimuli_original_animals_fish_1.png	Y	0	0	0	280.497257799841	280.697241399903
63001.25	100	443	12	1	17	11	11	6	0	0	0	stim012_stimuli_original_vehicles_boats_4.png	G	0	0	0	280.897252999945	281.097252799897
63101.25	100	444	12	1	17	12	13	12	0	0	0	stim014_stimuli_original_vehicles_planes_2.png	T	0	0	0	281.297263799934	281.497264599893
63201.25	100	445	12	1	17	13	12	1	0	0	0	stim013_stimuli_original_vehicles_planes_1.png	B	0	0	0	281.697274599923	281.897275900003
63301.25	100	446	12	1	17	14	7	3	0	0	0	stim008_stimuli_original_animals_fish_4.png	D	0	0	0	282.097284199903	282.297286199871
63401.25	100	447	12	1	17	15	9	11	0	0	0	stim010_stimuli_original_vehicles_boats_2.png	R	0	0	0	282.497322399868	282.697296299972
63501.25	100	448	12	1	17	16	6	4	0	0	0	stim007_stimuli_original_animals_fish_3.png	E	0	0	0	282.897307199892	283.097313300008
63601.25	100	449	12	1	17	17	1	8	0	0	0	stim002_stimuli_original_animals_birds_2.png	K	0	0	0	283.297316899989	283.497318299953
63701.25	100	450	12	1	17	18	8	1	0	0	0	stim009_stimuli_original_vehicles_boats_1.png	B	0	0	0	283.697327799862	283.897326499922
63801.25	100	451	12	1	17	19	4	6	0	0	0	stim005_stimuli_original_animals_fish_1.png	G	0	0	0	284.097339999862	284.297337800032
63901.25	100	452	12	1	17	20	11	9	0	0	0	stim012_stimuli_original_vehicles_boats_4.png	L	0	0	0	284.497350699967	284.697350000031
64001.25	100	453	12	1	17	21	3	7	0	0	0	stim004_stimuli_original_animals_birds_4.png	J	0	0	0	284.897360399831	285.097373799887
64101.25	100	454	12	1	17	22	1	12	0	0	0	stim002_stimuli_original_animals_birds_2.png	T	0	0	0	285.297371000051	285.497371800011
64201.25	100	455	12	1	17	23	12	13	0	0	0	stim013_stimuli_original_vehicles_planes_1.png	U	0	0	0	285.697393199895	285.897382899886
64301.25	100	456	12	1	17	24	6	11	0	0	0	stim007_stimuli_original_animals_fish_3.png	R	0	0	0	286.097395800054	286.297391599976
64401.25	100	457	12	1	17	25	15	4	1	0	0	stim016_stimuli_original_vehicles_planes_4.png	E	s	286.489989799913	0	286.497402899899	286.697401999962
64501.25	100	458	12	1	17	26	14	1	0	1	0	stim015_stimuli_original_vehicles_planes_3.png	B	0	0	0	286.897415699903	287.097413399955
64601.25	100	459	12	1	17	27	15	10	1	0	0	stim016_stimuli_original_vehicles_planes_4.png	Q	0	0	0	287.297464399831	287.497425199952
64701.25	100	460	12	1	17	28	7	1	0	1	1	stim008_stimuli_original_animals_fish_4.png	B	s	287.889239199925	1	287.697434599977	287.897436399944
64801.25	100	461	12	1	17	29	2	0	0	0	0	stim003_stimuli_original_animals_birds_3.png	A	0	0	0	288.09744549985	288.297457499895
64901.25	100	462	12	1	17	30	9	3	0	0	0	stim010_stimuli_original_vehicles_boats_2.png	D	0	0	0	288.497455799952	288.697457999922
65001.25	100	463	12	1	17	31	0	8	0	0	0	stim001_stimuli_original_animals_birds_1.png	K	0	0	0	288.89746729983	289.097466700012
65101.25	100	464	12	1	17	32	5	14	0	0	0	stim006_stimuli_original_animals_fish_2.png	V	0	0	0	289.297485399991	289.497479799902
65201.25	100	465	12	1	17	33	10	15	0	0	0	stim011_stimuli_original_vehicles_boats_3.png	Y	0	0	0	289.69748959993	289.897517699981
65301.25	100	466	12	1	17	34	13	2	0	0	0	stim014_stimuli_original_vehicles_planes_2.png	C	0	0	0	290.097499599913	290.297499799868
65401.25	100	467	12	1	17	35	15	5	0	0	0	stim016_stimuli_original_vehicles_planes_4.png	F	0	0	0	290.497538199881	290.697511699982
68905.5	100	468	13	0	29	0	12	8	0	0	0	stim013_stimuli_original_vehicles_planes_1.png	K	0	0	0	304.514563899953	304.714564699912
69005.5	100	469	13	0	29	1	10	0	0	0	0	stim011_stimuli_original_vehicles_boats_3.png	A	0	0	0	304.91457449994	305.114574800013
69105.5	100	470	13	0	29	2	14	15	0	0	0	stim015_stimuli_original_vehicles_planes_3.png	Y	0	0	0	305.314588299952	305.51462469995
69205.5	100	471	13	0	29	3	0	9	0	0	0	stim001_stimuli_original_animals_birds_1.png	L	0	0	0	305.714596200036	305.914596699877
69305.5	100	472	13	0	29	4	6	4	0	0	0	stim007_stimuli_original_animals_fish_3.png	E	0	0	0	306.114624599926	306.314606599975
69405.5	100	473	13	0	29	5	7	13	0	0	0	stim008_stimuli_original_animals_fish_4.png	U	0	0	0	306.514617499895	306.71461629984
69505.5	100	474	13	0	29	6	14	7	1	0	0	stim015_stimuli_original_vehicles_planes_3.png	J	0	0	0	306.914630600018	307.114655399928
69605.5	100	475	13	0	29	7	1	11	0	0	0	stim002_stimuli_original_animals_birds_2.png	R	0	0	0	307.314642800018	307.514638999943
69705.5	100	476	13	0	29	8	14	12	1	0	1	stim015_stimuli_original_vehicles_planes_3.png	T	s	307.707296599867	1	307.714648099849	307.914640199859
69805.5	100	477	13	0	29	9	2	2	0	0	0	stim003_stimuli_original_animals_birds_3.png	C	0	0	0	308.114676299971	308.314649699954
69905.5	100	478	13	0	29	10	4	5	0	0	0	stim005_stimuli_original_animals_fish_1.png	F	0	0	0	308.51465999987	308.714665199863
70005.5	100	479	13	0	29	11	5	3	0	0	0	stim006_stimuli_original_animals_fish_2.png	D	0	0	0	308.914670299971	309.114670499926
70105.5	100	480	13	0	29	12	13	11	0	1	0	stim014_stimuli_original_vehicles_planes_2.png	R	0	0	0	309.314684799872	309.514681499917
70205.5	100	481	13	0	29	13	11	14	0	0	0	stim012_stimuli_original_vehicles_boats_4.png	V	0	0	0	309.714692699956	309.914690400008
70305.5	100	482	13	0	29	14	3	11	0	1	0	stim004_stimuli_original_animals_birds_4.png	R	0	0	0	310.114702499937	310.314713999862
70405.5	100	483	13	0	29	15	8	6	0	0	0	stim009_stimuli_original_vehicles_boats_1.png	G	0	0	0	310.514716199832	310.71472509997
70505.5	100	484	13	0	29	16	15	10	0	0	0	stim016_stimuli_original_vehicles_planes_4.png	Q	0	0	0	310.91472469992	311.114723199978
70605.5	100	485	13	0	29	17	9	1	0	0	0	stim010_stimuli_original_vehicles_boats_2.png	B	0	0	0	311.314737200039	311.514732799958
70705.5	100	486	13	0	29	18	1	9	0	0	0	stim002_stimuli_original_animals_birds_2.png	L	0	0	0	311.714744600002	311.914746199967
70805.5	100	487	13	0	29	19	10	15	0	0	0	stim011_stimuli_original_vehicles_boats_3.png	Y	0	0	0	312.114755299874	312.314753700048
70905.5	100	488	13	0	29	20	6	8	0	0	0	stim007_stimuli_original_animals_fish_3.png	K	0	0	0	312.514766499866	312.714765300043
71005.5	100	489	13	0	29	21	11	3	1	0	0	stim012_stimuli_original_vehicles_boats_4.png	D	0	0	0	312.9148116	313.11479989998
71105.5	100	490	13	0	29	22	14	11	0	0	0	stim015_stimuli_original_vehicles_planes_3.png	R	0	0	0	313.314785199938	313.514786599902
71205.5	100	491	13	0	29	23	11	13	1	0	1	stim012_stimuli_original_vehicles_boats_4.png	U	0	0	0	313.714799399953	313.914803500054
71305.5	100	492	13	0	29	24	3	5	0	0	0	stim004_stimuli_original_animals_birds_4.png	F	s	314.306613599882	1	314.114820099901	314.314819599967
71405.5	100	493	13	0	29	25	5	4	0	0	0	stim006_stimuli_original_animals_fish_2.png	E	0	0	0	314.514827199979	314.71482559992
71505.5	100	494	13	0	29	26	2	2	0	0	0	stim003_stimuli_original_animals_birds_3.png	C	0	0	0	314.914840599988	315.114839900052
71605.5	100	495	13	0	29	27	12	14	0	1	0	stim013_stimuli_original_vehicles_planes_1.png	V	0	0	0	315.314847399946	315.5148779999
71705.5	100	496	13	0	29	28	11	1	0	0	0	stim012_stimuli_original_vehicles_boats_4.png	B	0	0	0	315.714863199973	315.91486150003
71805.5	100	497	13	0	29	29	7	14	0	1	0	stim008_stimuli_original_animals_fish_4.png	V	0	0	0	316.114884600043	316.31486799987
71905.5	100	498	13	0	29	30	13	7	0	0	0	stim014_stimuli_original_vehicles_planes_2.png	J	0	0	0	316.514880700037	316.714879899984
72005.5	100	499	13	0	29	31	4	6	0	0	0	stim005_stimuli_original_animals_fish_1.png	G	0	0	0	316.914891399909	317.114892199868
72105.5	100	500	13	0	29	32	9	0	0	0	0	stim010_stimuli_original_vehicles_boats_2.png	A	0	0	0	317.314906300046	317.514900899958
72205.5	100	501	13	0	29	33	15	14	0	0	0	stim016_stimuli_original_vehicles_planes_4.png	V	0	0	0	317.714913700009	317.914915299974
72305.5	100	502	13	0	29	34	0	10	0	0	0	stim001_stimuli_original_animals_birds_1.png	Q	0	0	0	318.114938699873	318.314923000056
72405.5	100	503	13	0	29	35	8	12	0	0	0	stim009_stimuli_original_vehicles_boats_1.png	T	0	0	0	318.514949799981	318.714933600044
72964	100	504	14	1	0	0	9	4	0	0	0	stim010_stimuli_original_vehicles_boats_2.png	E	0	0	0	320.748358199839	320.948355099885
73064	100	505	14	1	0	1	13	3	0	0	0	stim014_stimuli_original_vehicles_planes_2.png	D	0	0	0	321.148356199963	321.348355300026
73164	100	506	14	1	0	2	4	6	0	0	0	stim005_stimuli_original_animals_fish_1.png	G	0	0	0	321.548366999952	321.748362199869
73264	100	507	14	1	0	3	10	1	0	0	0	stim011_stimuli_original_vehicles_boats_3.png	B	0	0	0	321.948383499868	322.148388799978
73364	100	508	14	1	0	4	6	5	0	0	0	stim007_stimuli_original_animals_fish_3.png	F	0	0	0	322.348390100058	322.548376200022
73464	100	509	14	1	0	5	7	11	0	0	0	stim008_stimuli_original_animals_fish_4.png	R	0	0	0	322.748399700038	322.948367499979
73564	100	510	14	1	0	6	1	0	0	0	0	stim002_stimuli_original_animals_birds_2.png	A	0	0	0	323.148382300045	323.348379799863
73664	100	511	14	1	0	7	8	8	0	1	0	stim009_stimuli_original_vehicles_boats_1.png	K	0	0	0	323.548404600006	323.748392799869
73764	100	512	14	1	0	8	15	9	0	0	0	stim016_stimuli_original_vehicles_planes_4.png	L	0	0	0	323.948402900016	324.148402899969
73864	100	513	14	1	0	9	14	8	0	1	1	stim015_stimuli_original_vehicles_planes_3.png	K	0	0	0	324.348413300002	324.548412899952
73964	100	514	14	1	0	10	6	15	1	0	0	stim007_stimuli_original_animals_fish_3.png	Y	s	324.94022800005	1	324.748422799865	324.948425899958
74064	100	515	14	1	0	11	5	10	0	0	0	stim006_stimuli_original_animals_fish_2.png	Q	0	0	0	325.14847159991	325.34843569994
74164	100	516	14	1	0	12	6	12	1	0	0	stim007_stimuli_original_animals_fish_3.png	T	0	0	0	325.548445399851	325.748443899909
74264	100	517	14	1	0	13	12	2	0	0	0	stim013_stimuli_original_vehicles_planes_1.png	C	0	0	0	325.948479200015	326.14846099983
74364	100	518	14	1	0	14	11	8	0	0	0	stim012_stimuli_original_vehicles_boats_4.png	K	0	0	0	326.348468199838	326.548468899913
74464	100	519	14	1	0	15	2	13	0	0	0	stim003_stimuli_original_animals_birds_3.png	U	0	0	0	326.748477099929	326.948477499885
74564	100	520	14	1	0	16	3	7	0	0	0	stim004_stimuli_original_animals_birds_4.png	J	0	0	0	327.148489400046	327.34849080001
74664	100	521	14	1	0	17	0	14	0	0	0	stim001_stimuli_original_animals_birds_1.png	V	0	0	0	327.54850080004	327.748528499855
74764	100	522	14	1	0	18	14	0	0	0	0	stim015_stimuli_original_vehicles_planes_3.png	A	0	0	0	327.948509800015	328.148510399973
74864	100	523	14	1	0	19	7	3	0	0	0	stim008_stimuli_original_animals_fish_4.png	D	0	0	0	328.348548399983	328.548523499863
74964	100	524	14	1	0	20	13	2	0	0	0	stim014_stimuli_original_vehicles_planes_2.png	C	0	0	0	328.748531699879	328.948531999951
75064	100	525	14	1	0	21	8	11	0	0	0	stim009_stimuli_original_vehicles_boats_1.png	R	0	0	0	329.148541899864	329.348542599939
75164	100	526	14	1	0	22	2	12	0	0	0	stim003_stimuli_original_animals_birds_3.png	T	0	0	0	329.548552999971	329.748554700054
75264	100	527	14	1	0	23	12	6	0	1	0	stim013_stimuli_original_vehicles_planes_1.png	G	0	0	0	329.948570400011	330.148561900016
75364	100	528	14	1	0	24	10	5	0	0	0	stim011_stimuli_original_vehicles_boats_3.png	F	0	0	0	330.348588400055	330.548575100023
75464	100	529	14	1	0	25	15	6	0	1	1	stim016_stimuli_original_vehicles_planes_4.png	G	0	0	0	330.748585100053	330.948603899917
75564	100	530	14	1	0	26	8	14	1	0	0	stim009_stimuli_original_vehicles_boats_1.png	V	s	331.340386699885	1	331.148596399929	331.348596399883
75664	100	531	14	1	0	27	9	15	0	0	0	stim010_stimuli_original_vehicles_boats_2.png	Y	0	0	0	331.548614299856	331.748606199864
75764	100	532	14	1	0	28	8	8	1	0	0	stim009_stimuli_original_vehicles_boats_1.png	K	0	0	0	331.948627999984	332.148628500057
75864	100	533	14	1	0	29	0	1	0	0	0	stim001_stimuli_original_animals_birds_1.png	B	0	0	0	332.348641099874	332.54864579998
75964	100	534	14	1	0	30	11	7	0	0	0	stim012_stimuli_original_vehicles_boats_4.png	J	0	0	0	332.748652099865	332.94864810002
76064	100	535	14	1	0	31	5	6	0	0	0	stim006_stimuli_original_animals_fish_2.png	G	0	0	0	333.148649599869	333.348649200052
76164	100	536	14	1	0	32	1	10	0	0	0	stim002_stimuli_original_animals_birds_2.png	Q	0	0	0	333.548661599867	333.748660400044
76264	100	537	14	1	0	33	6	4	0	0	0	stim007_stimuli_original_animals_fish_3.png	E	0	0	0	333.948671399849	334.148693099851
76364	100	538	14	1	0	34	3	13	0	0	0	stim004_stimuli_original_animals_birds_4.png	U	0	0	0	334.34868169995	334.548689399846
76464	100	539	14	1	0	35	4	9	0	0	0	stim005_stimuli_original_animals_fish_1.png	L	0	0	0	334.74869389995	334.948692899896
77039	100	540	15	0	37	0	13	12	0	0	0	stim014_stimuli_original_vehicles_planes_2.png	T	0	0	0	337.048766299849	337.248754799832
77139	100	541	15	0	37	1	6	14	0	0	0	stim007_stimuli_original_animals_fish_3.png	V	0	0	0	337.448767099995	337.648763600038
77239	100	542	15	0	37	2	1	6	0	0	0	stim002_stimuli_original_animals_birds_2.png	G	0	0	0	337.848776199855	338.048777200049
77339	100	543	15	0	37	3	7	0	0	0	0	stim008_stimuli_original_animals_fish_4.png	A	0	0	0	338.24878829997	338.448798500001
77439	100	544	15	0	37	4	0	3	0	0	0	stim001_stimuli_original_animals_birds_1.png	D	0	0	0	338.648796299938	338.848798000021
77539	100	545	15	0	37	5	5	7	0	1	0	stim006_stimuli_original_animals_fish_2.png	J	0	0	0	339.048807800049	339.248808899894
77639	100	546	15	0	37	6	12	1	0	0	0	stim013_stimuli_original_vehicles_planes_1.png	B	0	0	0	339.448817899916	339.648818299873
77739	100	547	15	0	37	7	10	7	0	1	0	stim011_stimuli_original_vehicles_boats_3.png	J	0	0	0	339.848829899915	340.048828599975
77839	100	548	15	0	37	8	2	9	0	0	0	stim003_stimuli_original_animals_birds_3.png	L	0	0	0	340.248840699904	340.44883849984
77939	100	549	15	0	37	9	15	4	0	0	0	stim016_stimuli_original_vehicles_planes_4.png	E	0	0	0	340.648848699871	340.84885119996
78039	100	550	15	0	37	10	13	8	1	0	0	stim014_stimuli_original_vehicles_planes_2.png	K	0	0	0	341.048873699969	341.248863199959
78139	100	551	15	0	37	11	11	13	0	0	0	stim012_stimuli_original_vehicles_boats_4.png	U	0	0	0	341.448872699868	341.648879799992
78239	100	552	15	0	37	12	13	7	1	0	1	stim014_stimuli_original_vehicles_planes_2.png	J	0	0	0	341.848883799976	342.048881100025
78339	100	553	15	0	37	13	4	10	0	0	0	stim005_stimuli_original_animals_fish_1.png	Q	s	342.440685400041	1	342.248892899835	342.448894399917
78439	100	554	15	0	37	14	9	5	0	0	0	stim010_stimuli_original_vehicles_boats_2.png	F	0	0	0	342.64890219993	342.848903100006
78539	100	555	15	0	37	15	3	2	0	0	0	stim004_stimuli_original_animals_birds_4.png	C	0	0	0	343.048914399929	343.248939599842
78639	100	556	15	0	37	16	14	11	0	0	0	stim015_stimuli_original_vehicles_planes_3.png	R	0	0	0	343.448924900033	343.648925599875
78739	100	557	15	0	37	17	8	15	0	0	0	stim009_stimuli_original_vehicles_boats_1.png	Y	0	0	0	343.848952600034	344.048934999853
78839	100	558	15	0	37	18	15	8	0	0	0	stim016_stimuli_original_vehicles_planes_4.png	K	0	0	0	344.248948100023	344.448946599849
78939	100	559	15	0	37	19	11	14	0	0	0	stim012_stimuli_original_vehicles_boats_4.png	V	0	0	0	344.648970299866	344.848958299961
79039	100	560	15	0	37	20	2	3	0	0	0	stim003_stimuli_original_animals_birds_3.png	D	0	0	0	345.048970300006	345.24897119985
79139	100	561	15	0	37	21	5	9	0	0	0	stim006_stimuli_original_animals_fish_2.png	L	0	0	0	345.448978199856	345.648979400052
79239	100	562	15	0	37	22	10	4	0	0	0	stim011_stimuli_original_vehicles_boats_3.png	E	0	0	0	345.849015299929	346.048990499927
79339	100	563	15	0	37	23	7	13	0	1	0	stim008_stimuli_original_animals_fish_4.png	U	0	0	0	346.249001299962	346.449025199981
79439	100	564	15	0	37	24	13	11	0	0	0	stim014_stimuli_original_vehicles_planes_2.png	R	0	0	0	346.649010899942	346.849012600025
79539	100	565	15	0	37	25	8	13	0	1	0	stim009_stimuli_original_vehicles_boats_1.png	U	0	0	0	347.04902409995	347.249022400007
79639	100	566	15	0	37	26	4	15	0	0	0	stim005_stimuli_original_animals_fish_1.png	Y	0	0	0	347.449032299919	347.649032199988
79739	100	567	15	0	37	27	9	2	0	0	0	stim010_stimuli_original_vehicles_boats_2.png	C	0	0	0	347.849043200025	348.049046600005
79839	100	568	15	0	37	28	7	10	1	0	0	stim008_stimuli_original_animals_fish_4.png	Q	0	0	0	348.249053899897	348.449066199828
79939	100	569	15	0	37	29	1	12	0	0	0	stim002_stimuli_original_animals_birds_2.png	T	0	0	0	348.649064800004	348.849064899841
80039	100	570	15	0	37	30	7	5	1	0	1	stim008_stimuli_original_animals_fish_4.png	F	0	0	0	349.049084299942	349.24907479994
80139	100	571	15	0	37	31	3	0	0	0	0	stim004_stimuli_original_animals_birds_4.png	A	0	0	0	349.449085299857	349.649085799931
80239	100	572	15	0	37	32	0	7	0	0	0	stim001_stimuli_original_animals_birds_1.png	J	0	0	0	349.849096299848	350.04909710004
80339	100	573	15	0	37	33	6	1	0	0	0	stim007_stimuli_original_animals_fish_3.png	B	0	0	0	350.249106099829	350.449105700012
80439.25	100	574	15	0	37	34	14	6	0	0	0	stim015_stimuli_original_vehicles_planes_3.png	G	0	0	0	350.649155199993	350.849117300007
80539	100	575	15	0	37	35	12	13	0	0	0	stim013_stimuli_original_vehicles_planes_1.png	U	0	0	0	351.049128100043	351.249128099997
84656	100	576	16	1	34	0	8	10	0	0	0	stim009_stimuli_original_vehicles_boats_1.png	Q	0	0	0	367.516268299893	367.71624869993
84756	100	577	16	1	34	1	0	15	0	0	0	stim001_stimuli_original_animals_birds_1.png	Y	0	0	0	367.916274299845	368.116275700042
84856	100	578	16	1	34	2	7	11	0	0	0	stim008_stimuli_original_animals_fish_4.png	R	0	0	0	368.316284399945	368.516269000014
84956	100	579	16	1	34	3	6	13	0	0	0	stim007_stimuli_original_animals_fish_3.png	U	0	0	0	368.716282099951	368.916297599906
85056	100	580	16	1	34	4	15	1	1	0	0	stim016_stimuli_original_vehicles_planes_4.png	B	0	0	0	369.116307100048	369.316306099994
85156	100	581	16	1	34	5	3	12	0	0	0	stim004_stimuli_original_animals_birds_4.png	T	0	0	0	369.516307499958	369.71632170002
85256	100	582	16	1	34	6	15	0	1	0	0	stim016_stimuli_original_vehicles_planes_4.png	A	0	0	0	369.916327300016	370.116317000007
85356	100	583	16	1	34	7	5	7	0	0	0	stim006_stimuli_original_animals_fish_2.png	J	0	0	0	370.316341199912	370.516339299968
85456	100	584	16	1	34	8	14	10	0	1	0	stim015_stimuli_original_vehicles_planes_3.png	Q	0	0	0	370.716350599891	370.916349299951
85556	100	585	16	1	34	9	12	5	0	0	0	stim013_stimuli_original_vehicles_planes_1.png	F	0	0	0	371.116362900008	371.316360499943
85656	100	586	16	1	34	10	2	10	0	1	1	stim003_stimuli_original_animals_birds_3.png	Q	s	371.708188100019	1	371.516369899968	371.716374399839
85756	100	587	16	1	34	11	1	4	0	0	0	stim002_stimuli_original_animals_birds_2.png	E	0	0	0	371.916380199837	372.11635619984
85856	100	588	16	1	34	12	13	6	0	0	0	stim014_stimuli_original_vehicles_planes_2.png	G	0	0	0	372.316391899949	372.516392800026
85956	100	589	16	1	34	13	9	14	0	0	0	stim010_stimuli_original_vehicles_boats_2.png	V	0	0	0	372.716409599874	372.916403899901
86056	100	590	16	1	34	14	15	3	0	0	0	stim016_stimuli_original_vehicles_planes_4.png	D	0	0	0	373.116413200041	373.316415400011
86156	100	591	16	1	34	15	4	2	0	0	0	stim005_stimuli_original_animals_fish_1.png	C	0	0	0	373.516430999851	373.716425199993
86256	100	592	16	1	34	16	11	8	0	0	0	stim012_stimuli_original_vehicles_boats_4.png	K	0	0	0	373.916444099974	374.116423500003
86356	100	593	16	1	34	17	10	9	0	0	0	stim011_stimuli_original_vehicles_boats_3.png	L	0	0	0	374.316452199826	374.516450899886
86456	100	594	16	1	34	18	9	10	0	0	0	stim010_stimuli_original_vehicles_boats_2.png	Q	0	0	0	374.716496899957	374.916460299864
86556	100	595	16	1	34	19	8	11	0	0	0	stim009_stimuli_original_vehicles_boats_1.png	R	0	0	0	375.116476499941	375.316472499864
86656	100	596	16	1	34	20	2	4	0	0	0	stim003_stimuli_original_animals_birds_3.png	E	0	0	0	375.516482600011	375.716486999998
86756	100	597	16	1	34	21	3	15	0	0	0	stim004_stimuli_original_animals_birds_4.png	Y	0	0	0	375.916496600024	376.116493899841
86856	100	598	16	1	34	22	14	9	0	0	0	stim015_stimuli_original_vehicles_planes_3.png	L	0	0	0	376.316564799985	376.51651440002
86956	100	599	16	1	34	23	6	13	0	0	0	stim007_stimuli_original_animals_fish_3.png	U	0	0	0	376.716520899907	376.916505899979
87056	100	600	16	1	34	24	4	1	0	0	0	stim005_stimuli_original_animals_fish_1.png	B	0	0	0	377.116526299855	377.31652490003
87156	100	601	16	1	34	25	10	2	1	0	0	stim011_stimuli_original_vehicles_boats_3.png	C	0	0	0	377.516528599896	377.716543999966
87256	100	602	16	1	34	26	5	12	0	0	0	stim006_stimuli_original_animals_fish_2.png	T	0	0	0	377.916547099827	378.116545500001
87356	100	603	16	1	34	27	10	14	1	0	0	stim011_stimuli_original_vehicles_boats_3.png	V	0	0	0	378.316559899831	378.51655719988
87456	100	604	16	1	34	28	7	5	0	0	0	stim008_stimuli_original_animals_fish_4.png	F	0	0	0	378.716570799937	378.9165699
87556	100	605	16	1	34	29	0	15	0	1	0	stim001_stimuli_original_animals_birds_1.png	Y	0	0	0	379.116581199924	379.316580199869
87656	100	606	16	1	34	30	12	3	0	0	0	stim013_stimuli_original_vehicles_planes_1.png	D	0	0	0	379.516595399939	379.716590999858
87756	100	607	16	1	34	31	1	15	0	1	1	stim002_stimuli_original_animals_birds_2.png	Y	0	0	0	379.916602799902	380.116599099943
87856	100	608	16	1	34	32	13	6	0	0	0	stim014_stimuli_original_vehicles_planes_2.png	G	s	380.508399999933	1	380.316611399874	380.516611899948
87956	100	609	16	1	34	33	11	7	0	0	0	stim012_stimuli_original_vehicles_boats_4.png	J	0	0	0	380.716628199909	380.916625099955
88056	100	610	16	1	34	34	15	0	0	0	0	stim016_stimuli_original_vehicles_planes_4.png	A	0	0	0	381.116631199839	381.316634299932
88156	100	611	16	1	34	35	10	8	0	0	0	stim011_stimuli_original_vehicles_boats_3.png	K	0	0	0	381.516645899974	381.716645800043
88714.25	100	612	17	0	16	0	7	2	0	0	0	stim008_stimuli_original_animals_fish_4.png	C	0	0	0	383.750041699968	383.950037699891
88814.25	100	613	17	0	16	1	11	13	0	0	0	stim012_stimuli_original_vehicles_boats_4.png	U	0	0	0	384.15004800004	384.350052899914
88914.25	100	614	17	0	16	2	15	14	0	0	0	stim016_stimuli_original_vehicles_planes_4.png	V	0	0	0	384.550057299901	384.750056999968
89014.25	100	615	17	0	16	3	1	4	0	0	0	stim002_stimuli_original_animals_birds_2.png	E	0	0	0	384.950074899942	385.150068099843
89114.25	100	616	17	0	16	4	14	3	0	0	0	stim015_stimuli_original_vehicles_planes_3.png	D	0	0	0	385.350084499922	385.550078499829
89214.25	100	617	17	0	16	5	13	0	0	0	0	stim014_stimuli_original_vehicles_planes_2.png	A	0	0	0	385.750102199847	385.950089500053
89314.25	100	618	17	0	16	6	0	11	0	1	0	stim001_stimuli_original_animals_birds_1.png	R	0	0	0	386.150093700038	386.35009299987
89414.25	100	619	17	0	16	7	10	12	0	0	0	stim011_stimuli_original_vehicles_boats_3.png	T	0	0	0	386.550111699849	386.750104599865
89514.25	100	620	17	0	16	8	13	11	1	1	0	stim014_stimuli_original_vehicles_planes_2.png	R	0	0	0	386.950105799828	387.150116399862
89614.25	100	621	17	0	16	9	6	5	0	0	0	stim007_stimuli_original_animals_fish_3.png	F	0	0	0	387.350112800021	387.550125699956
89714.25	100	622	17	0	16	10	13	1	1	0	1	stim014_stimuli_original_vehicles_planes_2.png	B	0	0	0	387.75014499994	387.95014109998
89814.25	100	623	17	0	16	11	8	11	0	0	0	stim009_stimuli_original_vehicles_boats_1.png	R	0	0	0	388.15013269987	388.350149999838
89914.25	100	624	17	0	16	12	2	9	0	0	0	stim003_stimuli_original_animals_birds_3.png	L	s	388.542713599978	1	388.550154000055	388.750139399897
90014.25	100	625	17	0	16	13	9	7	0	0	0	stim010_stimuli_original_vehicles_boats_2.png	J	0	0	0	388.950157699874	389.150173299946
90114.25	100	626	17	0	16	14	5	6	0	0	0	stim006_stimuli_original_animals_fish_2.png	G	0	0	0	389.350180299953	389.550181499915
90214.25	100	627	17	0	16	15	3	8	0	0	0	stim004_stimuli_original_animals_birds_4.png	K	0	0	0	389.750192599837	389.950191800017
90314.25	100	628	17	0	16	16	4	15	0	0	0	stim005_stimuli_original_animals_fish_1.png	Y	0	0	0	390.150203200057	390.350206200033
90414.25	100	629	17	0	16	17	12	10	0	0	0	stim013_stimuli_original_vehicles_planes_1.png	Q	0	0	0	390.55021320004	390.750217099907
90514.25	100	630	17	0	16	18	10	12	0	0	0	stim011_stimuli_original_vehicles_boats_3.png	T	0	0	0	390.950216799974	391.150227499893
90614.25	100	631	17	0	16	19	15	4	0	0	0	stim016_stimuli_original_vehicles_planes_4.png	E	s	391.342803499894	0	391.350236600032	391.550237299874
90714.25	100	632	17	0	16	20	8	3	0	0	0	stim009_stimuli_original_vehicles_boats_1.png	D	0	0	0	391.750245299889	391.950247799978
90814.25	100	633	17	0	16	21	6	5	0	0	0	stim007_stimuli_original_animals_fish_3.png	F	0	0	0	392.150258299895	392.35025729984
90914.25	100	634	17	0	16	22	7	9	0	0	0	stim008_stimuli_original_animals_fish_4.png	L	0	0	0	392.550268699881	392.750269099837
91014.25	100	635	17	0	16	23	9	2	0	0	0	stim010_stimuli_original_vehicles_boats_2.png	C	0	0	0	392.950279799988	393.150258899899
91114.5	100	636	17	0	16	24	11	8	0	0	0	stim012_stimuli_original_vehicles_boats_4.png	K	0	0	0	393.350291099865	393.550286399899
91214.5	100	637	17	0	16	25	1	13	0	1	0	stim002_stimuli_original_animals_birds_2.png	U	0	0	0	393.750304099871	393.950299399905
91314.5	100	638	17	0	16	26	5	6	0	0	0	stim006_stimuli_original_animals_fish_2.png	G	0	0	0	394.15030879993	394.350308799883
91414.5	100	639	17	0	16	27	11	13	1	1	0	stim012_stimuli_original_vehicles_boats_4.png	U	0	0	0	394.550319599919	394.750320899999
91514.5	100	640	17	0	16	28	12	10	0	0	0	stim013_stimuli_original_vehicles_planes_1.png	Q	s	395.142125099897	0	394.95033719996	395.150331799872
91614.5	100	641	17	0	16	29	11	0	1	0	1	stim012_stimuli_original_vehicles_boats_4.png	A	0	0	0	395.350347299827	395.550345799886
91714.5	100	642	17	0	16	30	0	13	0	0	0	stim001_stimuli_original_animals_birds_1.png	U	0	0	0	395.750365899876	395.950357299997
91814.5	100	643	17	0	16	31	3	14	0	0	0	stim004_stimuli_original_animals_birds_4.png	V	0	0	0	396.150364399888	396.350365999853
91914.5	100	644	17	0	16	32	4	1	0	0	0	stim005_stimuli_original_animals_fish_1.png	B	0	0	0	396.550373599865	396.750372600043
92014.5	100	645	17	0	16	33	14	15	0	0	0	stim015_stimuli_original_vehicles_planes_3.png	Y	0	0	0	396.950393199921	397.150385499932
92114.5	100	646	17	0	16	34	13	11	0	0	0	stim014_stimuli_original_vehicles_planes_2.png	R	0	0	0	397.350396599853	397.550398899941
92214.5	100	647	17	0	16	35	2	7	0	0	0	stim003_stimuli_original_animals_birds_3.png	J	0	0	0	397.750412699999	397.950408800039
93093.5	100	648	18	1	9	0	0	13	0	0	0	stim001_stimuli_original_animals_birds_1.png	U	d	401.259879299905	0	401.267155099893	401.467144399881
93193.5	100	649	18	1	9	1	13	5	0	0	0	stim014_stimuli_original_vehicles_planes_2.png	F	0	0	0	401.667151100002	401.867163799936
93293.5	100	650	18	1	9	2	6	0	0	0	0	stim007_stimuli_original_animals_fish_3.png	A	0	0	0	402.06716259988	402.267168499995
93393.5	100	651	18	1	9	3	2	12	0	0	0	stim003_stimuli_original_animals_birds_3.png	T	0	0	0	402.467174499994	402.667170499917
93493.5	100	652	18	1	9	4	12	8	0	0	0	stim013_stimuli_original_vehicles_planes_1.png	K	0	0	0	402.867185099982	403.067183699924
93593.5	100	653	18	1	9	5	11	7	0	0	0	stim012_stimuli_original_vehicles_boats_4.png	J	0	0	0	403.267195599852	403.467231799848
93693.5	100	654	18	1	9	6	10	10	0	0	0	stim011_stimuli_original_vehicles_boats_3.png	Q	0	0	0	403.667206099955	403.867205099901
93793.5	100	655	18	1	9	7	5	15	0	1	0	stim006_stimuli_original_animals_fish_2.png	Y	0	0	0	404.06723070005	404.267221200047
93893.5	100	656	18	1	9	8	8	3	0	0	0	stim009_stimuli_original_vehicles_boats_1.png	D	0	0	0	404.46722640004	404.667227099882
93993.5	100	657	18	1	9	9	11	15	1	1	1	stim012_stimuli_original_vehicles_boats_4.png	Y	0	0	0	404.867239699932	405.06723819999
94093.5	100	658	18	1	9	10	14	11	0	0	0	stim015_stimuli_original_vehicles_planes_3.png	R	0	0	0	405.267247000011	405.467247699853
94193.5	100	659	18	1	9	11	11	2	1	0	0	stim012_stimuli_original_vehicles_boats_4.png	C	d	405.659836499952	1	405.667259000009	405.867260799976
94293.5	100	660	18	1	9	12	15	1	0	0	0	stim016_stimuli_original_vehicles_planes_4.png	B	0	0	0	406.067295799963	406.267269899836
94393.5	100	661	18	1	9	13	9	4	0	0	0	stim010_stimuli_original_vehicles_boats_2.png	E	0	0	0	406.467282199999	406.667295499938
94493.5	100	662	18	1	9	14	3	15	0	0	0	stim004_stimuli_original_animals_birds_4.png	Y	0	0	0	406.867294299882	407.067291700048
94593.5	100	663	18	1	9	15	4	14	0	0	0	stim005_stimuli_original_animals_fish_1.png	V	0	0	0	407.267302399967	407.467307499843
94693.5	100	664	18	1	9	16	1	6	0	0	0	stim002_stimuli_original_animals_birds_2.png	G	0	0	0	407.66731329984	407.867310700007
94793.5	100	665	18	1	9	17	7	9	0	0	0	stim008_stimuli_original_animals_fish_4.png	L	0	0	0	408.067326199962	408.267326500034
94893.75	100	666	18	1	9	18	9	7	0	0	0	stim010_stimuli_original_vehicles_boats_2.png	J	0	0	0	408.46733299992	408.667351499898
94993.75	100	667	18	1	9	19	6	1	0	0	0	stim007_stimuli_original_animals_fish_3.png	B	0	0	0	408.867344399914	409.067347999895
95093.75	100	668	18	1	9	20	14	4	0	0	0	stim015_stimuli_original_vehicles_planes_3.png	E	0	0	0	409.267368899891	409.467355899978
95193.75	100	669	18	1	9	21	15	3	0	0	0	stim016_stimuli_original_vehicles_planes_4.png	D	0	0	0	409.667364099994	409.867367999861
95293.75	100	670	18	1	9	22	4	9	0	0	0	stim005_stimuli_original_animals_fish_1.png	L	0	0	0	410.067378199892	410.267377499957
95393.75	100	671	18	1	9	23	1	15	0	0	0	stim002_stimuli_original_animals_birds_2.png	Y	d	410.659195099957	0	410.467387999874	410.667387299938
95493.75	100	672	18	1	9	24	2	11	0	1	0	stim003_stimuli_original_animals_birds_3.png	R	0	0	0	410.867400599876	411.067399099935
95593.75	100	673	18	1	9	25	11	14	0	0	0	stim012_stimuli_original_vehicles_boats_4.png	V	0	0	0	411.267443199875	411.467408200027
95693.75	100	674	18	1	9	26	15	11	1	1	1	stim016_stimuli_original_vehicles_planes_4.png	R	0	0	0	411.667418599827	411.867419899907
95793.75	100	675	18	1	9	27	3	8	0	0	0	stim004_stimuli_original_animals_birds_4.png	K	0	0	0	412.067432799842	412.267442299984
95893.75	100	676	18	1	9	28	15	5	1	0	0	stim016_stimuli_original_vehicles_planes_4.png	F	d	412.459990300005	1	412.467440299923	412.667443600018
95993.75	100	677	18	1	9	29	10	10	0	0	0	stim011_stimuli_original_vehicles_boats_3.png	Q	0	0	0	412.867452499922	413.06745309988
96093.75	100	678	18	1	9	30	7	11	0	0	0	stim008_stimuli_original_animals_fish_4.png	R	0	0	0	413.267462899908	413.467462899862
96193.75	100	679	18	1	9	31	8	12	0	0	0	stim009_stimuli_original_vehicles_boats_1.png	T	0	0	0	413.667472499888	413.867500300054
96293.75	100	680	18	1	9	32	12	2	0	0	0	stim013_stimuli_original_vehicles_planes_1.png	C	0	0	0	414.067483099876	414.26748239994
96393.75	100	681	18	1	9	33	0	6	0	0	0	stim001_stimuli_original_animals_birds_1.png	G	0	0	0	414.467522699852	414.667492199922
96493.75	100	682	18	1	9	34	5	13	0	0	0	stim006_stimuli_original_animals_fish_2.png	U	0	0	0	414.867509200005	415.06750769983
96593.75	100	683	18	1	9	35	13	0	0	0	0	stim014_stimuli_original_vehicles_planes_2.png	A	0	0	0	415.267514799954	415.467515599914
97210.25	100	684	19	0	13	0	14	12	0	0	0	stim015_stimuli_original_vehicles_planes_3.png	T	0	0	0	417.734286600025	417.934266899945
97310.25	100	685	19	0	13	1	9	3	0	0	0	stim010_stimuli_original_vehicles_boats_2.png	D	0	0	0	418.134291299852	418.334286399884
97410.25	100	686	19	0	13	2	12	15	0	0	0	stim013_stimuli_original_vehicles_planes_1.png	Y	0	0	0	418.5342925	418.734294399852
97510.25	100	687	19	0	13	3	13	8	0	0	0	stim014_stimuli_original_vehicles_planes_2.png	K	0	0	0	418.934295699932	419.134306999855
97610.25	100	688	19	0	13	4	6	4	0	0	0	stim007_stimuli_original_animals_fish_3.png	E	d	419.526119400049	0	419.334318300011	419.534317499958
97710.25	100	689	19	0	13	5	3	6	0	1	0	stim004_stimuli_original_animals_birds_4.png	G	0	0	0	419.734328699997	419.934343699832
97810.25	100	690	19	0	13	6	10	11	0	0	0	stim011_stimuli_original_vehicles_boats_3.png	R	0	0	0	420.134323799983	420.334342199843
97910.25	100	691	19	0	13	7	2	6	0	1	0	stim003_stimuli_original_animals_birds_3.png	G	0	0	0	420.534349299967	420.734350099927
98010.25	100	692	19	0	13	8	7	0	0	0	0	stim008_stimuli_original_animals_fish_4.png	A	0	0	0	420.934362599859	421.134361400036
98110.5	100	693	19	0	13	9	8	1	0	0	0	stim009_stimuli_original_vehicles_boats_1.png	B	0	0	0	421.334372099955	421.534372899914
98210.5	100	694	19	0	13	10	2	13	1	0	0	stim003_stimuli_original_animals_birds_3.png	U	0	0	0	421.734382200055	421.934384000022
98310.5	100	695	19	0	13	11	15	5	0	0	0	stim016_stimuli_original_vehicles_planes_4.png	F	0	0	0	422.134395299945	422.334392699879
98410.5	100	696	19	0	13	12	2	6	1	0	1	stim003_stimuli_original_animals_birds_3.png	G	d	422.526999399997	1	422.534429199994	422.734392700018
98510.5	100	697	19	0	13	13	5	14	0	0	0	stim006_stimuli_original_animals_fish_2.png	V	0	0	0	422.934413400013	423.134418499889
98610.5	100	698	19	0	13	14	1	2	0	0	0	stim002_stimuli_original_animals_birds_2.png	C	0	0	0	423.334424200002	423.534426599974
98710.5	100	699	19	0	13	15	4	10	0	0	0	stim005_stimuli_original_animals_fish_1.png	Q	0	0	0	423.734434099868	423.934435199946
98810.5	100	700	19	0	13	16	11	7	0	0	0	stim012_stimuli_original_vehicles_boats_4.png	J	0	0	0	424.134445499862	424.334462000057
98910.5	100	701	19	0	13	17	0	9	0	0	0	stim001_stimuli_original_animals_birds_1.png	L	0	0	0	424.53445399995	424.734473899938
99010.5	100	702	19	0	13	18	9	0	0	0	0	stim010_stimuli_original_vehicles_boats_2.png	A	0	0	0	424.934468899854	425.134465599898
99110.5	100	703	19	0	13	19	7	11	0	0	0	stim008_stimuli_original_animals_fish_4.png	R	0	0	0	425.334484499879	425.534488899866
99210.5	100	704	19	0	13	20	10	4	0	0	0	stim011_stimuli_original_vehicles_boats_3.png	E	0	0	0	425.734490099829	425.9344728
99310.5	100	705	19	0	13	21	2	1	0	0	0	stim003_stimuli_original_animals_birds_3.png	B	0	0	0	426.134512099903	426.334499199875
99410.5	100	706	19	0	13	22	14	5	0	0	0	stim015_stimuli_original_vehicles_planes_3.png	F	0	0	0	426.534511999926	426.734509099973
99510.5	100	707	19	0	13	23	6	2	0	1	0	stim007_stimuli_original_animals_fish_3.png	C	0	0	0	426.934522100026	427.134516699938
99610.5	100	708	19	0	13	24	5	15	0	0	0	stim006_stimuli_original_animals_fish_2.png	Y	0	0	0	427.33455280005	427.534538900014
99710.5	100	709	19	0	13	25	13	2	0	1	0	stim014_stimuli_original_vehicles_planes_2.png	C	0	0	0	427.734546199907	427.934561299859
99810.5	100	710	19	0	13	26	1	8	0	0	0	stim002_stimuli_original_animals_birds_2.png	K	0	0	0	428.134557199897	428.334558099974
99910.5	100	711	19	0	13	27	0	7	0	0	0	stim001_stimuli_original_animals_birds_1.png	J	0	0	0	428.534568500007	428.734567799838
100010.5	100	712	19	0	13	28	6	2	1	0	0	stim007_stimuli_original_animals_fish_3.png	C	0	0	0	428.934582100017	429.134579499951
100110.5	100	713	19	0	13	29	11	10	0	0	0	stim012_stimuli_original_vehicles_boats_4.png	Q	0	0	0	429.334590399871	429.534581299871
100210.5	100	714	19	0	13	30	6	3	1	0	1	stim007_stimuli_original_animals_fish_3.png	D	0	0	0	429.734601899981	429.934601099929
100310.5	100	715	19	0	13	31	4	6	0	0	0	stim005_stimuli_original_animals_fish_1.png	G	d	430.334772799863	1	430.134603899904	430.334610200021
100410.5	100	716	19	0	13	32	8	13	0	0	0	stim009_stimuli_original_vehicles_boats_1.png	U	0	0	0	430.534626299981	430.734621299896
100510.5	100	717	19	0	13	33	15	12	0	0	0	stim016_stimuli_original_vehicles_planes_4.png	T	0	0	0	430.934635399841	431.134618500015
100610.5	100	718	19	0	13	34	3	9	0	0	0	stim004_stimuli_original_animals_birds_4.png	L	0	0	0	431.33464269992	431.534643799998
100710.5	100	719	19	0	13	35	12	14	0	0	0	stim013_stimuli_original_vehicles_planes_1.png	V	0	0	0	431.734652000014	431.934654299868
101214.5	100	720	20	1	29	0	12	8	0	0	0	stim013_stimuli_original_vehicles_planes_1.png	K	0	0	0	433.751356299967	433.951369599905
101314.5	100	721	20	1	29	1	10	0	0	0	0	stim011_stimuli_original_vehicles_boats_3.png	A	0	0	0	434.151350499829	434.351381500019
101414.5	100	722	20	1	29	2	14	15	0	0	0	stim015_stimuli_original_vehicles_planes_3.png	Y	0	0	0	434.551387599902	434.751386599848
101514.75	100	723	20	1	29	3	0	9	0	0	0	stim001_stimuli_original_animals_birds_1.png	L	0	0	0	434.951397500001	435.151398899965
101614.75	100	724	20	1	29	4	6	4	0	0	0	stim007_stimuli_original_animals_fish_3.png	E	0	0	0	435.351414700039	435.551401200006
101714.75	100	725	20	1	29	5	7	13	0	0	0	stim008_stimuli_original_animals_fish_4.png	U	0	0	0	435.751421999885	435.95142359985
101814.75	100	726	20	1	29	6	14	7	1	0	0	stim015_stimuli_original_vehicles_planes_3.png	J	0	0	0	436.151441999944	436.351446799934
101914.75	100	727	20	1	29	7	1	11	0	0	0	stim002_stimuli_original_animals_birds_2.png	R	0	0	0	436.551444499986	436.751442699926
102014.75	100	728	20	1	29	8	14	12	1	0	0	stim015_stimuli_original_vehicles_planes_3.png	T	0	0	0	436.951464500045	437.151453699917
102114.75	100	729	20	1	29	9	2	2	0	0	0	stim003_stimuli_original_animals_birds_3.png	C	0	0	0	437.351463899948	437.551465499913
102214.75	100	730	20	1	29	10	4	5	0	0	0	stim005_stimuli_original_animals_fish_1.png	F	0	0	0	437.751480199862	437.951476600021
102314.75	100	731	20	1	29	11	5	3	0	0	0	stim006_stimuli_original_animals_fish_2.png	D	0	0	0	438.151488499949	438.351492400048
102414.75	100	732	20	1	29	12	13	11	0	1	0	stim014_stimuli_original_vehicles_planes_2.png	R	0	0	0	438.551495499909	438.751484700013
102514.75	100	733	20	1	29	13	11	14	0	0	0	stim012_stimuli_original_vehicles_boats_4.png	V	0	0	0	438.951516699977	439.151506999973
102614.75	100	734	20	1	29	14	3	11	0	1	1	stim004_stimuli_original_animals_birds_4.png	R	0	0	0	439.351518299896	439.551520599984
102714.75	100	735	20	1	29	15	8	6	0	0	0	stim009_stimuli_original_vehicles_boats_1.png	G	d	439.943351299968	1	439.75153280003	439.951532999985
102814.75	100	736	20	1	29	16	15	10	0	0	0	stim016_stimuli_original_vehicles_planes_4.png	Q	0	0	0	440.151541299885	440.351542499848
102914.75	100	737	20	1	29	17	9	1	0	0	0	stim010_stimuli_original_vehicles_boats_2.png	B	0	0	0	440.551551299868	440.751555699855
103014.75	100	738	20	1	29	18	1	9	0	0	0	stim002_stimuli_original_animals_birds_2.png	L	0	0	0	440.951561999973	441.151557100005
103114.75	100	739	20	1	29	19	10	15	0	0	0	stim011_stimuli_original_vehicles_boats_3.png	Y	0	0	0	441.351571999956	441.551573100034
103214.75	100	740	20	1	29	20	6	8	0	0	0	stim007_stimuli_original_animals_fish_3.png	K	0	0	0	441.751577199902	441.951601200039
103314.75	100	741	20	1	29	21	11	3	1	0	0	stim012_stimuli_original_vehicles_boats_4.png	D	0	0	0	442.151593100047	442.351593700005
103414.75	100	742	20	1	29	22	14	11	0	0	0	stim015_stimuli_original_vehicles_planes_3.png	R	0	0	0	442.551609799964	442.751603099983
103514.75	100	743	20	1	29	23	11	13	1	0	0	stim012_stimuli_original_vehicles_boats_4.png	U	0	0	0	442.951615999918	443.15160099999
103614.75	100	744	20	1	29	24	3	5	0	0	0	stim004_stimuli_original_animals_birds_4.png	F	0	0	0	443.351627199911	443.551625099964
103714.75	100	745	20	1	29	25	5	4	0	0	0	stim006_stimuli_original_animals_fish_2.png	E	0	0	0	443.751613799948	443.951638199855
103814.75	100	746	20	1	29	26	2	2	0	0	0	stim003_stimuli_original_animals_birds_3.png	C	0	0	0	444.151655999944	444.351633399958
103914.75	100	747	20	1	29	27	12	14	0	1	0	stim013_stimuli_original_vehicles_planes_1.png	V	0	0	0	444.551658299984	444.751660999842
104014.75	100	748	20	1	29	28	11	1	0	0	0	stim012_stimuli_original_vehicles_boats_4.png	B	0	0	0	444.951668799855	445.151667800033
104114.75	100	749	20	1	29	29	7	14	0	1	1	stim008_stimuli_original_animals_fish_4.png	V	0	0	0	445.351703499909	445.551682400052
104214.75	100	750	20	1	29	30	13	7	0	0	0	stim014_stimuli_original_vehicles_planes_2.png	J	d	445.943502699956	1	445.751689200057	445.951698899968
104314.75	100	751	20	1	29	31	4	6	0	0	0	stim005_stimuli_original_animals_fish_1.png	G	0	0	0	446.151701899944	446.351710699964
104414.75	100	752	20	1	29	32	9	0	0	0	0	stim010_stimuli_original_vehicles_boats_2.png	A	0	0	0	446.55171229993	446.751714699902
104514.75	100	753	20	1	29	33	15	14	0	0	0	stim016_stimuli_original_vehicles_planes_4.png	V	0	0	0	446.951712599955	447.151722499868
104614.75	100	754	20	1	29	34	0	10	0	0	0	stim001_stimuli_original_animals_birds_1.png	Q	0	0	0	447.351733099902	447.551734599983
104714.75	100	755	20	1	29	35	8	12	0	0	0	stim009_stimuli_original_vehicles_boats_1.png	T	0	0	0	447.751749499934	447.951746099861
105223	100	756	21	0	27	0	4	10	0	0	0	stim005_stimuli_original_animals_fish_1.png	Q	0	0	0	449.78514939989	449.985140000004
105323	100	757	21	0	27	1	5	11	0	0	0	stim006_stimuli_original_animals_fish_2.png	R	0	0	0	450.185143499868	450.385148099856
105423	100	758	21	0	27	2	6	15	0	0	0	stim007_stimuli_original_animals_fish_3.png	Y	0	0	0	450.585154399974	450.785151700024
105523	100	759	21	0	27	3	2	14	0	0	0	stim003_stimuli_original_animals_birds_3.png	V	0	0	0	450.98516479996	451.18516819994
105623	100	760	21	0	27	4	1	1	0	0	0	stim002_stimuli_original_animals_birds_2.png	B	0	0	0	451.385191099951	451.585159499897
105723	100	761	21	0	27	5	12	7	0	0	0	stim013_stimuli_original_vehicles_planes_1.png	J	0	0	0	451.785186199937	451.985185599886
105823	100	762	21	0	27	6	5	4	1	0	0	stim006_stimuli_original_animals_fish_2.png	E	0	0	0	452.185195900034	452.38519579987
105923	100	763	21	0	27	7	3	8	0	0	0	stim004_stimuli_original_animals_birds_4.png	K	0	0	0	452.585209999932	452.785206799861
106023	100	764	21	0	27	8	5	5	1	0	1	stim006_stimuli_original_animals_fish_2.png	F	0	0	0	452.985218599904	453.185220599873
106123	100	765	21	0	27	9	11	2	0	0	0	stim012_stimuli_original_vehicles_boats_4.png	C	d	453.577017099829	1	453.385229199892	453.585236599902
106223	100	766	21	0	27	10	14	1	0	1	0	stim015_stimuli_original_vehicles_planes_3.png	B	0	0	0	453.785237899981	453.985241899965
106323	100	767	21	0	27	11	7	13	0	0	0	stim008_stimuli_original_animals_fish_4.png	U	0	0	0	454.185234799981	454.385251199827
106423	100	768	21	0	27	12	0	1	0	1	0	stim001_stimuli_original_animals_birds_1.png	B	0	0	0	454.585244799964	454.785257800017
106523	100	769	21	0	27	13	9	6	0	0	0	stim010_stimuli_original_vehicles_boats_2.png	G	0	0	0	454.985270399833	455.185270899907
106623	100	770	21	0	27	14	15	0	0	0	0	stim016_stimuli_original_vehicles_planes_4.png	A	0	0	0	455.385295500048	455.585287000053
106723	100	771	21	0	27	15	10	3	0	0	0	stim011_stimuli_original_vehicles_boats_3.png	D	0	0	0	455.785274999915	455.985293499893
106823	100	772	21	0	27	16	8	12	0	0	0	stim009_stimuli_original_vehicles_boats_1.png	T	0	0	0	456.185322599951	456.385302299866
106923	100	773	21	0	27	17	13	9	0	0	0	stim014_stimuli_original_vehicles_planes_2.png	L	0	0	0	456.58531669993	456.785310699837
107023	100	774	21	0	27	18	9	13	0	0	0	stim010_stimuli_original_vehicles_boats_2.png	U	0	0	0	456.985325200018	457.185324999969
107123	100	775	21	0	27	19	12	8	0	0	0	stim013_stimuli_original_vehicles_planes_1.png	K	0	0	0	457.385334799998	457.585335899843
107223	100	776	21	0	27	20	3	10	0	0	0	stim004_stimuli_original_animals_birds_4.png	Q	0	0	0	457.78534599999	457.985344900051
107323	100	777	21	0	27	21	0	15	0	0	0	stim001_stimuli_original_animals_birds_1.png	Y	0	0	0	458.185361000011	458.385342299938
107423	100	778	21	0	27	22	6	9	0	0	0	stim007_stimuli_original_animals_fish_3.png	L	0	0	0	458.585368499858	458.785369300051
107523	100	779	21	0	27	23	1	0	1	0	0	stim002_stimuli_original_animals_birds_2.png	A	0	0	0	458.985371500021	459.185378500028
107623	100	780	21	0	27	24	13	7	0	0	0	stim014_stimuli_original_vehicles_planes_2.png	J	0	0	0	459.385389499832	459.585389300017
107723	100	781	21	0	27	25	1	14	1	0	1	stim002_stimuli_original_animals_birds_2.png	V	0	0	0	459.785401899833	459.985400500009
107823	100	782	21	0	27	26	2	11	0	0	0	stim003_stimuli_original_animals_birds_3.png	R	d	460.386007499881	1	460.185410399921	460.385409999872
107923	100	783	21	0	27	27	5	5	0	1	0	stim006_stimuli_original_animals_fish_2.png	F	0	0	0	460.585421900032	460.785420299973
108023	100	784	21	0	27	28	8	3	0	0	0	stim009_stimuli_original_vehicles_boats_1.png	D	0	0	0	460.985424999846	461.185430599842
108123	100	785	21	0	27	29	4	5	0	1	0	stim005_stimuli_original_animals_fish_1.png	F	0	0	0	461.385441599879	461.585427099839
108223	100	786	21	0	27	30	7	12	0	0	0	stim008_stimuli_original_animals_fish_4.png	T	0	0	0	461.785457100021	461.985455599846
108323	100	787	21	0	27	31	1	1	0	0	0	stim002_stimuli_original_animals_birds_2.png	B	0	0	0	462.185463899979	462.385461699916
108423	100	788	21	0	27	32	14	2	0	0	0	stim015_stimuli_original_vehicles_planes_3.png	C	0	0	0	462.585476099979	462.785474400036
108523	100	789	21	0	27	33	15	6	0	0	0	stim016_stimuli_original_vehicles_planes_4.png	G	0	0	0	462.985484799836	463.185482400004
108623.25	100	790	21	0	27	34	11	5	0	0	0	stim012_stimuli_original_vehicles_boats_4.png	F	0	0	0	463.385493699927	463.585492399987
108723.25	100	791	21	0	27	35	10	4	0	0	0	stim011_stimuli_original_vehicles_boats_3.png	E	0	0	0	463.78550680005	463.985503399977
109239.75	100	792	22	1	15	0	13	15	0	0	0	stim014_stimuli_original_vehicles_planes_2.png	Y	0	0	0	465.852245899849	466.052234099945
109339.75	100	793	22	1	15	1	2	8	0	0	0	stim003_stimuli_original_animals_birds_3.png	K	0	0	0	466.252243899973	466.452246299945
109439.75	100	794	22	1	15	2	5	7	0	0	0	stim006_stimuli_original_animals_fish_2.png	J	0	0	0	466.652252899949	466.852259099949
109539.75	100	795	22	1	15	3	1	2	0	0	0	stim002_stimuli_original_animals_birds_2.png	C	0	0	0	467.052258400014	467.252265699906
109639.75	100	796	22	1	15	4	10	4	0	0	0	stim011_stimuli_original_vehicles_boats_3.png	E	0	0	0	467.452270600013	467.652270199964
109739.75	100	797	22	1	15	5	8	9	0	0	0	stim009_stimuli_original_vehicles_boats_1.png	L	0	0	0	467.85228240001	468.052281199954
109839.75	100	798	22	1	15	6	9	5	0	0	0	stim010_stimuli_original_vehicles_boats_2.png	F	0	0	0	468.252293299884	468.452292099828
109939.75	100	799	22	1	15	7	2	10	1	1	0	stim003_stimuli_original_animals_birds_3.png	Q	0	0	0	468.652304099873	468.852303100051
110039.75	100	800	22	1	15	8	12	0	0	0	0	stim013_stimuli_original_vehicles_planes_1.png	A	0	0	0	469.052315399982	469.252312599914
