onset	duration	eventnumber	sequencenumber	condition	streamnumber	stimnumber	objectstimnumber	letterstimnumber	objecttarget	lettertarget	is2back	objectstim	letterstim	response	rt	correct	time_stimon	time_stimoff
83.937	0.2	0	0	1	9	0	1	12	0	0	0	stim002_stimuli_original_animals_birds_2.png	T	0	0	0	113.791697399982	113.991693999968
84.338	0.2	1	0	1	9	1	8	7	0	0	0	stim009_stimuli_original_vehicles_boats_1.png	J	0	0	0	114.192141500011	114.391707199975
84.737	0.2	2	0	1	9	2	5	5	0	0	0	stim006_stimuli_original_animals_fish_2.png	F	0	0	0	114.59168979997	114.791684399999
85.137	0.2	3	0	1	9	3	14	14	0	0	0	stim015_stimuli_original_vehicles_planes_3.png	V	0	0	0	114.991717599973	115.191695499991
85.537	0.2	4	0	1	9	4	4	6	1	0	0	stim005_stimuli_original_animals_fish_1.png	G	0	0	0	115.391710700002	115.591706199979
85.937	0.2	5	0	1	9	5	11	13	0	0	0	stim012_stimuli_original_vehicles_boats_4.png	U	0	0	0	115.791718899971	115.991720399994
86.337	0.2	6	0	1	9	6	4	15	1	1	0	stim005_stimuli_original_animals_fish_1.png	Y	0	0	0	116.191728700011	116.391727500013
86.737	0.2	7	0	1	9	7	2	4	0	0	0	stim003_stimuli_original_animals_birds_3.png	E	0	0	0	116.591740600008	116.791738700005
87.137	0.2	8	0	1	9	8	3	15	0	1	1	stim004_stimuli_original_animals_birds_4.png	Y	0	0	0	116.991780199984	117.191749699996
87.537	0.2	9	0	1	9	9	13	3	0	0	0	stim014_stimuli_original_vehicles_planes_2.png	D	0	0	0	117.39178830001	117.591759199975
87.937	0.2	10	0	1	9	10	7	1	0	0	0	stim008_stimuli_original_animals_fish_4.png	B	NaN	117.784504499985	1	117.791769800009	117.991787999985
88.337	0.2	11	0	1	9	11	9	15	0	0	0	stim010_stimuli_original_vehicles_boats_2.png	Y	0	0	0	118.191780099995	118.391782000021
88.737	0.2	12	0	1	9	12	10	9	0	0	0	stim011_stimuli_original_vehicles_boats_3.png	L	0	0	0	118.591791899991	118.791791399999
89.137	0.2	13	0	1	9	13	0	0	0	0	0	stim001_stimuli_original_animals_birds_1.png	A	0	0	0	118.991802499979	119.19180109998
89.537	0.2	14	0	1	9	14	15	11	0	0	0	stim016_stimuli_original_vehicles_planes_4.png	R	NaN	119.384514899983	0	119.391812899965	119.59196489997
89.937	0.2	15	0	1	9	15	4	8	0	0	0	stim005_stimuli_original_animals_fish_1.png	K	0	0	0	119.791825000022	119.991836500005
90.338	0.2	16	0	1	9	16	6	10	0	0	0	stim007_stimuli_original_animals_fish_3.png	Q	0	0	0	120.191834099998	120.391831099987
90.738	0.2	17	0	1	9	17	12	2	0	0	0	stim013_stimuli_original_vehicles_planes_1.png	C	0	0	0	120.591846099996	120.791843599989
91.138	0.2	18	0	1	9	18	2	12	0	0	0	stim003_stimuli_original_animals_birds_3.png	T	0	0	0	120.991855499975	121.191855299985
91.538	0.2	19	0	1	9	19	10	6	0	0	0	stim011_stimuli_original_vehicles_boats_3.png	G	0	0	0	121.391866200021	121.591863400012
91.938	0.2	20	0	1	9	20	8	4	0	0	0	stim009_stimuli_original_vehicles_boats_1.png	E	0	0	0	121.791875399998	121.991875600012
92.338	0.2	21	0	1	9	21	11	15	0	0	0	stim012_stimuli_original_vehicles_boats_4.png	Y	0	0	0	122.191916399985	122.391883399978
92.738	0.2	22	0	1	9	22	0	0	0	0	0	stim001_stimuli_original_animals_birds_1.png	A	0	0	0	122.591895599966	122.791910199972
93.138	0.2	23	0	1	9	23	9	10	0	0	0	stim010_stimuli_original_vehicles_boats_2.png	Q	0	0	0	122.991907000018	123.19190689997
93.538	0.2	24	0	1	9	24	15	9	0	0	0	stim016_stimuli_original_vehicles_planes_4.png	L	0	0	0	123.391915199987	123.591919499973
93.938	0.2	25	0	1	9	25	1	7	0	0	0	stim002_stimuli_original_animals_birds_2.png	J	0	0	0	123.791927699989	123.991925199982
94.338	0.2	26	0	1	9	26	3	13	0	0	0	stim004_stimuli_original_animals_birds_4.png	U	0	0	0	124.191938399978	124.391938599991
94.738	0.2	27	0	1	9	27	15	3	1	0	0	stim016_stimuli_original_vehicles_planes_4.png	D	0	0	0	124.591969800007	124.791975500004
95.138	0.2	28	0	1	9	28	4	2	0	0	0	stim005_stimuli_original_animals_fish_1.png	C	0	0	0	124.991958800005	125.19195800001
95.538	0.2	29	0	1	9	29	15	4	1	1	0	stim016_stimuli_original_vehicles_planes_4.png	E	0	0	0	125.391992199991	125.591968399996
95.938	0.2	30	0	1	9	30	13	11	0	0	0	stim014_stimuli_original_vehicles_planes_2.png	R	0	0	0	125.791979199974	125.991978399979
96.338	0.2	31	0	1	9	31	6	4	0	1	1	stim007_stimuli_original_animals_fish_3.png	E	0	0	0	126.191991099971	126.391987400013
96.738	0.2	32	0	1	9	32	14	14	0	0	0	stim015_stimuli_original_vehicles_planes_3.png	V	0	0	0	126.591999900003	126.792000899964
97.138	0.2	33	0	1	9	33	5	5	0	0	0	stim006_stimuli_original_animals_fish_2.png	F	0	0	0	126.992009599984	127.192011800013
97.538	0.2	34	0	1	9	34	7	8	0	0	0	stim008_stimuli_original_animals_fish_4.png	K	NaN	127.384545999987	1	127.39203529997	127.592025299964
97.938	0.2	35	0	1	9	35	12	1	0	0	0	stim013_stimuli_original_vehicles_planes_1.png	B	0	0	0	127.792034999991	127.992046599975
108.471	0.2	36	1	0	31	0	8	3	0	0	0	stim009_stimuli_original_vehicles_boats_1.png	D	0	0	0	138.325668799982	138.525666599977
108.871	0.2	37	1	0	31	1	6	14	0	0	0	stim007_stimuli_original_animals_fish_3.png	V	0	0	0	138.725677000009	138.92567789997
109.271	0.2	38	1	0	31	2	7	13	0	0	0	stim008_stimuli_original_animals_fish_4.png	U	0	0	0	139.12569169997	139.325670699996
109.671	0.2	39	1	0	31	3	11	11	0	0	0	stim012_stimuli_original_vehicles_boats_4.png	R	0	0	0	139.525693500007	139.725697799993
110.071	0.2	40	1	0	31	4	3	2	1	0	0	stim004_stimuli_original_animals_birds_4.png	C	0	0	0	139.92571380001	140.125719100004
110.471	0.2	41	1	0	31	5	0	12	0	0	0	stim001_stimuli_original_animals_birds_1.png	T	0	0	0	140.325725100003	140.525718799967
110.871	0.2	42	1	0	31	6	3	5	1	0	1	stim004_stimuli_original_animals_birds_4.png	F	0	0	0	140.725730100006	140.925728700007
111.271	0.2	43	1	0	31	7	10	15	0	0	0	stim011_stimuli_original_vehicles_boats_3.png	Y	0	0	0	141.125744699966	141.325740300003
111.671	0.2	44	1	0	31	8	4	8	0	0	0	stim005_stimuli_original_animals_fish_1.png	K	NaN	141.717550500005	1	141.525752199988	141.725750999991
112.071	0.2	45	1	0	31	9	2	0	0	0	0	stim003_stimuli_original_animals_birds_3.png	A	0	0	0	141.925762699975	142.12578479998
112.471	0.2	46	1	0	31	10	9	12	0	1	0	stim010_stimuli_original_vehicles_boats_2.png	T	0	0	0	142.325772500015	142.52577170002
112.871	0.2	47	1	0	31	11	3	4	0	0	0	stim004_stimuli_original_animals_birds_4.png	E	0	0	0	142.72578149999	142.925781800004
113.271	0.2	48	1	0	31	12	15	12	0	1	0	stim016_stimuli_original_vehicles_planes_4.png	T	0	0	0	143.12579239998	143.325792699994
113.671	0.2	49	1	0	31	13	12	1	0	0	0	stim013_stimuli_original_vehicles_planes_1.png	B	NaN	143.518366799981	0	143.525803499972	143.725803599984
114.071	0.2	50	1	0	31	14	5	7	0	0	0	stim006_stimuli_original_animals_fish_2.png	J	0	0	0	143.92581320001	144.125810800004
114.471	0.2	51	1	0	31	15	13	9	0	0	0	stim014_stimuli_original_vehicles_planes_2.png	L	0	0	0	144.325811799965	144.525825599965
114.871	0.2	52	1	0	31	16	14	6	0	0	0	stim015_stimuli_original_vehicles_planes_3.png	G	0	0	0	144.725847999973	144.925836300012
115.271	0.2	53	1	0	31	17	1	10	0	0	0	stim002_stimuli_original_animals_birds_2.png	Q	0	0	0	145.125848800002	145.325845299987
115.671	0.2	54	1	0	31	18	10	1	0	0	0	stim011_stimuli_original_vehicles_boats_3.png	B	NaN	145.518397799984	0	145.525855200016	145.725854799966
116.071	0.2	55	1	0	31	19	6	14	0	0	0	stim007_stimuli_original_animals_fish_3.png	V	0	0	0	145.925867700018	146.125865900016
116.471	0.2	56	1	0	31	20	9	13	0	0	0	stim010_stimuli_original_vehicles_boats_2.png	U	0	0	0	146.325875399983	146.525875899999
116.871	0.2	57	1	0	31	21	7	5	0	0	0	stim008_stimuli_original_animals_fish_4.png	F	0	0	0	146.725890700007	146.925889000006
117.271	0.2	58	1	0	31	22	1	12	0	0	0	stim002_stimuli_original_animals_birds_2.png	T	0	0	0	147.125886499998	147.325895200018
117.672	0.2	59	1	0	31	23	12	15	1	0	0	stim013_stimuli_original_vehicles_planes_1.png	Y	0	0	0	147.525905199989	147.725908899971
118.072	0.2	60	1	0	31	24	4	3	0	0	0	stim005_stimuli_original_animals_fish_1.png	D	0	0	0	147.925919100002	148.125901799998
118.472	0.2	61	1	0	31	25	12	9	1	0	1	stim013_stimuli_original_vehicles_planes_1.png	L	0	0	0	148.325932900014	148.525929900003
118.872	0.2	62	1	0	31	26	0	2	0	0	0	stim001_stimuli_original_animals_birds_1.png	C	0	0	0	148.725937900017	148.925937499967
119.272	0.2	63	1	0	31	27	8	4	0	0	0	stim009_stimuli_original_vehicles_boats_1.png	E	NaN	149.118489300017	1	149.12595289998	149.325955800014
119.672	0.2	64	1	0	31	28	15	10	0	0	0	stim016_stimuli_original_vehicles_planes_4.png	Q	0	0	0	149.525943199988	149.725942499994
120.072	0.2	65	1	0	31	29	5	3	0	1	0	stim006_stimuli_original_animals_fish_2.png	D	0	0	0	149.925969899981	150.125979100005
120.472	0.2	66	1	0	31	30	12	0	0	0	0	stim013_stimuli_original_vehicles_planes_1.png	A	0	0	0	150.325982799986	150.525965299981
120.872	0.2	67	1	0	31	31	2	3	0	1	0	stim003_stimuli_original_animals_birds_3.png	D	0	0	0	150.725990800012	150.925993299985
121.272	0.2	68	1	0	31	32	11	11	0	0	0	stim012_stimuli_original_vehicles_boats_4.png	R	0	0	0	151.126002000005	151.326001400012
121.672	0.2	69	1	0	31	33	13	7	0	0	0	stim014_stimuli_original_vehicles_planes_2.png	J	0	0	0	151.526015400013	151.726012900006
122.072	0.2	70	1	0	31	34	14	6	0	0	0	stim015_stimuli_original_vehicles_planes_3.png	G	0	0	0	151.926023899985	152.126036599977
122.472	0.2	71	1	0	31	35	3	8	0	0	0	stim004_stimuli_original_animals_birds_4.png	K	0	0	0	152.326035299979	152.526018099976
128.605	0.2	72	2	1	41	0	0	10	0	0	0	stim001_stimuli_original_animals_birds_1.png	Q	0	0	0	158.459530099994	158.659528199991
129.005	0.2	73	2	1	41	1	4	15	0	0	0	stim005_stimuli_original_animals_fish_1.png	Y	0	0	0	158.859534499992	159.059536900022
129.405	0.2	74	2	1	41	2	14	12	0	0	0	stim015_stimuli_original_vehicles_planes_3.png	T	0	0	0	159.259549600014	159.459548700019
129.805	0.2	75	2	1	41	3	7	13	0	0	0	stim008_stimuli_original_animals_fish_4.png	U	0	0	0	159.659560500004	159.859556599986
130.205	0.2	76	2	1	41	4	3	8	1	0	0	stim004_stimuli_original_animals_birds_4.png	K	0	0	0	160.059558800014	160.259560199978
130.605	0.2	77	2	1	41	5	12	14	0	1	0	stim013_stimuli_original_vehicles_planes_1.png	V	0	0	0	160.459609400015	160.659582799999
131.005	0.2	78	2	1	41	6	3	3	1	0	0	stim004_stimuli_original_animals_birds_4.png	D	0	0	0	160.859589600004	161.059590000019
131.405	0.2	79	2	1	41	7	5	14	0	1	1	stim006_stimuli_original_animals_fish_2.png	V	0	0	0	161.259600099991	161.45960110001
131.805	0.2	80	2	1	41	8	1	5	0	0	0	stim002_stimuli_original_animals_birds_2.png	F	0	0	0	161.659616400022	161.859608399973
132.205	0.2	81	2	1	41	9	9	1	0	0	0	stim010_stimuli_original_vehicles_boats_2.png	B	NaN	162.052225599997	1	162.059624199988	162.259625000006
132.605	0.2	82	2	1	41	10	3	2	0	0	0	stim004_stimuli_original_animals_birds_4.png	C	0	0	0	162.459637799999	162.659615000011
133.005	0.2	83	2	1	41	11	10	11	0	0	0	stim011_stimuli_original_vehicles_boats_3.png	R	0	0	0	162.859639499977	163.059640499996
133.405	0.2	84	2	1	41	12	11	0	0	0	0	stim012_stimuli_original_vehicles_boats_4.png	A	0	0	0	163.25965610001	163.459656000021
133.805	0.2	85	2	1	41	13	6	14	0	0	0	stim007_stimuli_original_animals_fish_3.png	V	0	0	0	163.659663999977	163.859661999973
134.205	0.2	86	2	1	41	14	8	6	0	0	0	stim009_stimuli_original_vehicles_boats_1.png	G	0	0	0	164.059673100011	164.259673699969
134.605	0.2	87	2	1	41	15	13	9	0	0	0	stim014_stimuli_original_vehicles_planes_2.png	L	0	0	0	164.459686700022	164.659685599967
135.005	0.2	88	2	1	41	16	15	4	0	0	0	stim016_stimuli_original_vehicles_planes_4.png	E	0	0	0	164.859700399975	165.059698599973
135.405	0.2	89	2	1	41	17	2	7	0	0	0	stim003_stimuli_original_animals_birds_3.png	J	0	0	0	165.259683599987	165.45970549999
135.805	0.2	90	2	1	41	18	7	2	0	0	0	stim008_stimuli_original_animals_fish_4.png	C	0	0	0	165.65971550002	165.859716499981
136.205	0.2	91	2	1	41	19	4	15	0	0	0	stim005_stimuli_original_animals_fish_1.png	Y	0	0	0	166.059729299974	166.259729399986
136.605	0.2	92	2	1	41	20	9	13	0	0	0	stim010_stimuli_original_vehicles_boats_2.png	U	0	0	0	166.459740399965	166.659739899973
137.005	0.2	93	2	1	41	21	6	8	0	0	0	stim007_stimuli_original_animals_fish_3.png	K	0	0	0	166.859747599985	167.059750300017
137.405	0.2	94	2	1	41	22	14	6	0	0	0	stim015_stimuli_original_vehicles_planes_3.png	G	0	0	0	167.259764799965	167.459759499994
137.805	0.2	95	2	1	41	23	0	11	0	0	0	stim001_stimuli_original_animals_birds_1.png	R	0	0	0	167.659768800018	167.859777899983
138.205	0.2	96	2	1	41	24	11	10	0	0	0	stim012_stimuli_original_vehicles_boats_4.png	Q	0	0	0	168.059778800001	168.259777900006
138.605	0.2	97	2	1	41	25	2	3	0	0	0	stim003_stimuli_original_animals_birds_3.png	D	0	0	0	168.459797299991	168.659788899997
139.005	0.2	98	2	1	41	26	1	9	0	0	0	stim002_stimuli_original_animals_birds_2.png	L	0	0	0	168.859799899976	169.059803800017
139.405	0.2	99	2	1	41	27	5	1	0	0	0	stim006_stimuli_original_animals_fish_2.png	B	0	0	0	169.25981269998	169.459811699984
139.805	0.2	100	2	1	41	28	14	5	1	0	0	stim015_stimuli_original_vehicles_planes_3.png	F	0	0	0	169.659821000008	169.859821899969
140.205	0.2	101	2	1	41	29	3	3	0	1	0	stim004_stimuli_original_animals_birds_4.png	D	0	0	0	170.059808499995	170.259833699965
140.605	0.2	102	2	1	41	30	14	12	1	0	0	stim015_stimuli_original_vehicles_planes_3.png	T	0	0	0	170.459861300013	170.659842199995
141.005	0.2	103	2	1	41	31	8	3	0	1	1	stim009_stimuli_original_vehicles_boats_1.png	D	0	0	0	170.859853899979	171.059837699984
141.405	0.2	104	2	1	41	32	13	7	0	0	0	stim014_stimuli_original_vehicles_planes_2.png	J	0	0	0	171.259863000014	171.459866499994
141.805	0.2	105	2	1	41	33	12	14	0	0	0	stim013_stimuli_original_vehicles_planes_1.png	V	0	0	0	171.659874000004	171.859873100009
142.205	0.2	106	2	1	41	34	15	4	0	0	0	stim016_stimuli_original_vehicles_planes_4.png	E	0	0	0	172.059887900017	172.259884800005
142.605	0.2	107	2	1	41	35	10	0	0	0	0	stim011_stimuli_original_vehicles_boats_3.png	A	0	0	0	172.45989529998	172.659887999995
152.706	0.2	108	3	0	9	0	1	12	0	0	0	stim002_stimuli_original_animals_birds_2.png	T	0	0	0	182.560136399989	182.760135399993
153.106	0.2	109	3	0	9	1	8	7	0	0	0	stim009_stimuli_original_vehicles_boats_1.png	J	0	0	0	182.960143000004	183.16014469997
153.506	0.2	110	3	0	9	2	5	5	0	0	0	stim006_stimuli_original_animals_fish_2.png	F	0	0	0	183.360154900001	183.560152699996
153.906	0.2	111	3	0	9	3	14	14	0	0	0	stim015_stimuli_original_vehicles_planes_3.png	V	0	0	0	183.760163699975	183.960163899988
154.306	0.2	112	3	0	9	4	4	6	1	0	0	stim005_stimuli_original_animals_fish_1.png	G	0	0	0	184.160176299978	184.360186800011
154.706	0.2	113	3	0	9	5	11	13	0	0	0	stim012_stimuli_original_vehicles_boats_4.png	U	0	0	0	184.560188099975	184.760184700019
155.106	0.2	114	3	0	9	6	4	15	1	1	1	stim005_stimuli_original_animals_fish_1.png	Y	0	0	0	184.960201599984	185.160196000012
155.506	0.2	115	3	0	9	7	2	4	0	0	0	stim003_stimuli_original_animals_birds_3.png	E	0	0	0	185.360206699988	185.560205499991
155.906	0.2	116	3	0	9	8	3	15	0	1	0	stim004_stimuli_original_animals_birds_4.png	Y	NaN	185.752778799972	1	185.760217299976	185.96021629998
156.306	0.2	117	3	0	9	9	13	3	0	0	0	stim014_stimuli_original_vehicles_planes_2.png	D	0	0	0	186.160255900002	186.360253099992
156.706	0.2	118	3	0	9	10	7	1	0	0	0	stim008_stimuli_original_animals_fish_4.png	B	0	0	0	186.560263599968	186.760247899976
157.106	0.2	119	3	0	9	11	9	15	0	0	0	stim010_stimuli_original_vehicles_boats_2.png	Y	0	0	0	186.960275799967	187.160273100017
157.506	0.2	120	3	0	9	12	10	9	0	0	0	stim011_stimuli_original_vehicles_boats_3.png	L	0	0	0	187.360286400013	187.560282599996
157.906	0.2	121	3	0	9	13	0	0	0	0	0	stim001_stimuli_original_animals_birds_1.png	A	0	0	0	187.76029820001	187.960292899981
158.306	0.2	122	3	0	9	14	15	11	0	0	0	stim016_stimuli_original_vehicles_planes_4.png	R	0	0	0	188.16030649998	188.360306699993
158.706	0.2	123	3	0	9	15	4	8	0	0	0	stim005_stimuli_original_animals_fish_1.png	K	0	0	0	188.560319899989	188.760323099967
159.106	0.2	124	3	0	9	16	6	10	0	0	0	stim007_stimuli_original_animals_fish_3.png	Q	0	0	0	188.960327700013	189.160330999992
159.506	0.2	125	3	0	9	17	12	2	0	0	0	stim013_stimuli_original_vehicles_planes_1.png	C	0	0	0	189.360338500002	189.56033930002
159.906	0.2	126	3	0	9	18	2	12	0	0	0	stim003_stimuli_original_animals_birds_3.png	T	0	0	0	189.760334599996	189.960353199975
160.306	0.2	127	3	0	9	19	10	6	0	0	0	stim011_stimuli_original_vehicles_boats_3.png	G	0	0	0	190.160349800019	190.360358399979
160.706	0.2	128	3	0	9	20	8	4	0	0	0	stim009_stimuli_original_vehicles_boats_1.png	E	0	0	0	190.56037089997	190.760373199999
161.106	0.2	129	3	0	9	21	11	15	0	0	0	stim012_stimuli_original_vehicles_boats_4.png	Y	0	0	0	190.960381300014	191.160363100003
161.506	0.2	130	3	0	9	22	0	0	0	0	0	stim001_stimuli_original_animals_birds_1.png	A	0	0	0	191.36039300001	191.5603749
161.906	0.2	131	3	0	9	23	9	10	0	0	0	stim010_stimuli_original_vehicles_boats_2.png	Q	0	0	0	191.76040520001	191.960401999997
162.306	0.2	132	3	0	9	24	15	9	0	0	0	stim016_stimuli_original_vehicles_planes_4.png	L	0	0	0	192.160410900018	192.360416700016
162.706	0.2	133	3	0	9	25	1	7	0	0	0	stim002_stimuli_original_animals_birds_2.png	J	0	0	0	192.560421200003	192.760424999986
163.106	0.2	134	3	0	9	26	3	13	0	0	0	stim004_stimuli_original_animals_birds_4.png	U	0	0	0	192.960437199974	193.160434300022
163.506	0.2	135	3	0	9	27	15	3	1	0	0	stim016_stimuli_original_vehicles_planes_4.png	D	0	0	0	193.360443299985	193.560440299974
163.906	0.2	136	3	0	9	28	4	2	0	0	0	stim005_stimuli_original_animals_fish_1.png	C	0	0	0	193.760454499978	193.960453699983
164.306	0.2	137	3	0	9	29	15	4	1	1	1	stim016_stimuli_original_vehicles_planes_4.png	E	0	0	0	194.160466299974	194.360465799982
164.706	0.2	138	3	0	9	30	13	11	0	0	0	stim014_stimuli_original_vehicles_planes_2.png	R	0	0	0	194.560475800012	194.760472499998
165.106	0.2	139	3	0	9	31	6	4	0	1	0	stim007_stimuli_original_animals_fish_3.png	E	0	0	0	194.960492299986	195.160473199969
165.506	0.2	140	3	0	9	32	14	14	0	0	0	stim015_stimuli_original_vehicles_planes_3.png	V	0	0	0	195.360494999972	195.560493999976
165.906	0.2	141	3	0	9	33	5	5	0	0	0	stim006_stimuli_original_animals_fish_2.png	F	0	0	0	195.760506299965	195.96049019997
166.306	0.2	142	3	0	9	34	7	8	0	0	0	stim008_stimuli_original_animals_fish_4.png	K	0	0	0	196.16051919997	196.36051530001
166.706	0.2	143	3	0	9	35	12	1	0	0	0	stim013_stimuli_original_vehicles_planes_1.png	B	0	0	0	196.560534599994	196.760530099971
174.79	0.2	144	4	1	44	0	0	1	0	0	0	stim001_stimuli_original_animals_birds_1.png	B	0	0	0	204.644068899972	204.844058999966
175.19	0.2	145	4	1	44	1	13	5	0	0	0	stim014_stimuli_original_vehicles_planes_2.png	F	0	0	0	205.044056800019	205.244084100006
175.59	0.2	146	4	1	44	2	2	3	0	0	0	stim003_stimuli_original_animals_birds_3.png	D	0	0	0	205.444093799975	205.644093399984
175.99	0.2	147	4	1	44	3	4	14	0	0	0	stim005_stimuli_original_animals_fish_1.png	V	0	0	0	205.84410529997	206.044122699997
176.39	0.2	148	4	1	44	4	1	0	0	0	0	stim002_stimuli_original_animals_birds_2.png	A	0	0	0	206.244097099989	206.44409579999
176.79	0.2	149	4	1	44	5	3	10	0	0	0	stim004_stimuli_original_animals_birds_4.png	Q	0	0	0	206.644126500003	206.844106999983
177.19	0.2	150	4	1	44	6	12	15	0	0	0	stim013_stimuli_original_vehicles_planes_1.png	Y	0	0	0	207.044117200014	207.244106400001
177.59	0.2	151	4	1	44	7	7	9	0	0	0	stim008_stimuli_original_animals_fish_4.png	L	0	0	0	207.44413020002	207.644130099972
177.99	0.2	152	4	1	44	8	8	11	0	0	0	stim009_stimuli_original_vehicles_boats_1.png	R	0	0	0	207.844141400012	208.044126899971
178.39	0.2	153	4	1	44	9	12	2	1	0	0	stim013_stimuli_original_vehicles_planes_1.png	C	0	0	0	208.24413810001	208.4441353
178.79	0.2	154	4	1	44	10	11	8	0	0	0	stim012_stimuli_original_vehicles_boats_4.png	K	0	0	0	208.644161199976	208.844145999989
179.19	0.2	155	4	1	44	11	12	9	1	1	0	stim013_stimuli_original_vehicles_planes_1.png	L	0	0	0	209.044157799974	209.244160900009
179.59	0.2	156	4	1	44	12	15	4	0	0	0	stim016_stimuli_original_vehicles_planes_4.png	E	0	0	0	209.444168000016	209.644168999977
179.99	0.2	157	4	1	44	13	6	9	0	1	1	stim007_stimuli_original_animals_fish_3.png	L	0	0	0	209.844180900021	210.044179300021
180.39	0.2	158	4	1	44	14	14	12	0	0	0	stim015_stimuli_original_vehicles_planes_3.png	T	0	0	0	210.244197099993	210.444189600006
180.79	0.2	159	4	1	44	15	5	13	0	0	0	stim006_stimuli_original_animals_fish_2.png	U	0	0	0	210.644200899987	210.844238499994
181.19	0.2	160	4	1	44	16	10	6	0	0	0	stim011_stimuli_original_vehicles_boats_3.png	G	NaN	211.036791299994	1	211.044213599991	211.244220599998
181.59	0.2	161	4	1	44	17	9	7	0	0	0	stim010_stimuli_original_vehicles_boats_2.png	J	0	0	0	211.444221800019	211.644220799964
181.99	0.2	162	4	1	44	18	7	9	0	0	0	stim008_stimuli_original_animals_fish_4.png	L	0	0	0	211.844233300013	212.044232000015
182.39	0.2	163	4	1	44	19	6	10	0	0	0	stim007_stimuli_original_animals_fish_3.png	Q	0	0	0	212.244243399997	212.444241899997
182.79	0.2	164	4	1	44	20	13	5	0	0	0	stim014_stimuli_original_vehicles_planes_2.png	F	0	0	0	212.644254999992	212.844252199982
183.19	0.2	165	4	1	44	21	12	14	0	0	0	stim013_stimuli_original_vehicles_planes_1.png	V	0	0	0	213.044265299977	213.244263199973
183.59	0.2	166	4	1	44	22	9	6	1	0	0	stim010_stimuli_original_vehicles_boats_2.png	G	0	0	0	213.444301899988	213.644274599967
183.99	0.2	167	4	1	44	23	4	15	0	0	0	stim005_stimuli_original_animals_fish_1.png	Y	0	0	0	213.844284099992	214.044301999966
184.39	0.2	168	4	1	44	24	9	12	1	1	0	stim010_stimuli_original_vehicles_boats_2.png	T	0	0	0	214.244298800011	214.444311300002
184.79	0.2	169	4	1	44	25	8	11	0	0	0	stim009_stimuli_original_vehicles_boats_1.png	R	0	0	0	214.644308599993	214.844304199971
185.19	0.2	170	4	1	44	26	2	12	0	1	1	stim003_stimuli_original_animals_birds_3.png	T	0	0	0	215.044317299966	215.244315000018
185.59	0.2	171	4	1	44	27	11	8	0	0	0	stim012_stimuli_original_vehicles_boats_4.png	K	0	0	0	215.444326199999	215.644336699974
185.99	0.2	172	4	1	44	28	9	7	0	0	0	stim010_stimuli_original_vehicles_boats_2.png	J	NaN	215.836885700002	1	215.844336899987	216.044364099973
186.39	0.2	173	4	1	44	29	15	12	0	0	0	stim016_stimuli_original_vehicles_planes_4.png	T	0	0	0	216.2443509	216.444352399965
186.79	0.2	174	4	1	44	30	10	3	0	0	0	stim011_stimuli_original_vehicles_boats_3.png	D	0	0	0	216.644375199976	216.844357199967
187.19	0.2	175	4	1	44	31	0	1	0	0	0	stim001_stimuli_original_animals_birds_1.png	B	0	0	0	217.044370899966	217.24436979997
187.59	0.2	176	4	1	44	32	14	4	0	0	0	stim015_stimuli_original_vehicles_planes_3.png	E	0	0	0	217.444379499997	217.64438730001
187.99	0.2	177	4	1	44	33	3	2	0	0	0	stim004_stimuli_original_animals_birds_4.png	C	0	0	0	217.844390299986	218.044389999995
188.39	0.2	178	4	1	44	34	5	13	0	0	0	stim006_stimuli_original_animals_fish_2.png	U	0	0	0	218.244410899992	218.444399499975
188.79	0.2	179	4	1	44	35	1	0	0	0	0	stim002_stimuli_original_animals_birds_2.png	A	0	0	0	218.644423899997	218.844409300014
198.173	0.2	180	5	0	3	0	4	0	0	0	0	stim005_stimuli_original_animals_fish_1.png	A	0	0	0	228.027997299971	228.227992
198.573	0.2	181	5	0	3	1	9	2	0	0	0	stim010_stimuli_original_vehicles_boats_2.png	C	0	0	0	228.428005399997	228.628002699988
198.973	0.2	182	5	0	3	2	2	4	0	0	0	stim003_stimuli_original_animals_birds_3.png	E	0	0	0	228.828015899984	229.028034000017
199.373	0.2	183	5	0	3	3	13	6	0	0	0	stim014_stimuli_original_vehicles_planes_2.png	G	0	0	0	229.228024900018	229.428045400011
199.773	0.2	184	5	0	3	4	0	1	1	0	0	stim001_stimuli_original_animals_birds_1.png	B	0	0	0	229.628035200003	229.828035600018
200.174	0.2	185	5	0	3	5	15	9	0	0	0	stim016_stimuli_original_vehicles_planes_4.png	L	0	0	0	230.028048200009	230.228047300014
200.573	0.2	186	5	0	3	6	0	8	1	0	1	stim001_stimuli_original_animals_birds_1.png	K	0	0	0	230.428056999983	230.628057299997
200.974	0.2	187	5	0	3	7	11	7	0	0	0	stim012_stimuli_original_vehicles_boats_4.png	J	0	0	0	230.828067699971	231.02807890001
201.374	0.2	188	5	0	3	8	6	5	0	0	0	stim007_stimuli_original_animals_fish_3.png	F	NaN	231.419870599988	1	231.228079299966	231.428078599973
201.774	0.2	189	5	0	3	9	14	12	0	0	0	stim015_stimuli_original_vehicles_planes_3.png	T	0	0	0	231.628123499977	231.828092699987
202.174	0.2	190	5	0	3	10	12	3	0	0	0	stim013_stimuli_original_vehicles_planes_1.png	D	0	0	0	232.028100199997	232.228099600004
202.574	0.2	191	5	0	3	11	10	9	0	1	0	stim011_stimuli_original_vehicles_boats_3.png	L	0	0	0	232.428110299981	232.62812259997
202.974	0.2	192	5	0	3	12	0	11	0	0	0	stim001_stimuli_original_animals_birds_1.png	R	0	0	0	232.828126800014	233.028119399969
203.374	0.2	193	5	0	3	13	1	9	0	1	0	stim002_stimuli_original_animals_birds_2.png	L	0	0	0	233.228132000018	233.428131299966
203.774	0.2	194	5	0	3	14	3	13	0	0	0	stim004_stimuli_original_animals_birds_4.png	U	0	0	0	233.628141399997	233.828139899997
204.174	0.2	195	5	0	3	15	5	10	0	0	0	stim006_stimuli_original_animals_fish_2.png	Q	NaN	234.020707499993	0	234.028153799998	234.228177500016
204.574	0.2	196	5	0	3	16	7	15	0	0	0	stim008_stimuli_original_animals_fish_4.png	Y	0	0	0	234.428163999983	234.628161899978
204.974	0.2	197	5	0	3	17	8	14	0	0	0	stim009_stimuli_original_vehicles_boats_1.png	V	0	0	0	234.828201800003	235.028171600017
205.374	0.2	198	5	0	3	18	14	8	0	0	0	stim015_stimuli_original_vehicles_planes_3.png	K	0	0	0	235.228184900014	235.428195999993
205.774	0.2	199	5	0	3	19	15	7	0	0	0	stim016_stimuli_original_vehicles_planes_4.png	J	0	0	0	235.628193399985	235.828194200003
206.174	0.2	200	5	0	3	20	10	5	0	0	0	stim011_stimuli_original_vehicles_boats_3.png	F	0	0	0	236.028205799987	236.228202699975
206.574	0.2	201	5	0	3	21	13	3	0	0	0	stim014_stimuli_original_vehicles_planes_2.png	D	0	0	0	236.428218299989	236.628213699965
206.974	0.2	202	5	0	3	22	9	1	1	0	0	stim010_stimuli_original_vehicles_boats_2.png	B	0	0	0	236.828243299969	237.028224400012
207.374	0.2	203	5	0	3	23	11	0	0	0	0	stim012_stimuli_original_vehicles_boats_4.png	A	NaN	237.22080999997	0	237.228235899995	237.428242900001
207.774	0.2	204	5	0	3	24	9	10	1	0	1	stim010_stimuli_original_vehicles_boats_2.png	Q	0	0	0	237.628247999994	237.828257400019
208.174	0.2	205	5	0	3	25	3	12	0	0	0	stim004_stimuli_original_animals_birds_4.png	T	0	0	0	238.028257999977	238.228257399984
208.574	0.2	206	5	0	3	26	12	14	0	0	0	stim013_stimuli_original_vehicles_planes_1.png	V	0	0	0	238.428267500014	238.628271099995
208.974	0.2	207	5	0	3	27	5	6	0	0	0	stim006_stimuli_original_animals_fish_2.png	G	0	0	0	238.828280100017	239.028277900012
209.374	0.2	208	5	0	3	28	7	11	0	0	0	stim008_stimuli_original_animals_fish_4.png	R	0	0	0	239.228290600004	239.428299000021
209.774	0.2	209	5	0	3	29	8	0	0	1	0	stim009_stimuli_original_vehicles_boats_1.png	A	0	0	0	239.628304600017	239.828299699991
210.174	0.2	210	5	0	3	30	9	15	0	0	0	stim010_stimuli_original_vehicles_boats_2.png	Y	0	0	0	240.028316000011	240.22830800002
210.574	0.2	211	5	0	3	31	1	0	0	1	0	stim002_stimuli_original_animals_birds_2.png	A	0	0	0	240.428321100015	240.628319200012
210.974	0.2	212	5	0	3	32	6	13	0	0	0	stim007_stimuli_original_animals_fish_3.png	U	0	0	0	240.828330299992	241.0283299
211.374	0.2	213	5	0	3	33	4	2	0	0	0	stim005_stimuli_original_animals_fish_1.png	C	0	0	0	241.228342999995	241.428341599996
211.774	0.2	214	5	0	3	34	2	9	0	0	0	stim003_stimuli_original_animals_birds_3.png	L	0	0	0	241.628379000002	241.828351299977
212.174	0.2	215	5	0	3	35	0	4	0	0	0	stim001_stimuli_original_animals_birds_1.png	E	0	0	0	242.028365899983	242.228376700019
222.441	0.2	216	6	1	30	0	11	2	0	0	0	stim012_stimuli_original_vehicles_boats_4.png	C	0	0	0	252.295299999998	252.495298599999
222.841	0.2	217	6	1	30	1	9	8	0	0	0	stim010_stimuli_original_vehicles_boats_2.png	K	0	0	0	252.695310399984	252.895308699983
223.241	0.2	218	6	1	30	2	7	10	0	0	0	stim008_stimuli_original_animals_fish_4.png	Q	0	0	0	253.09531840001	253.295319899975
223.641	0.2	219	6	1	30	3	1	4	0	0	0	stim002_stimuli_original_animals_birds_2.png	E	0	0	0	253.495328599995	253.695330100018
224.041	0.2	220	6	1	30	4	5	13	0	0	0	stim006_stimuli_original_animals_fish_2.png	U	0	0	0	253.895340599993	254.09534
224.441	0.2	221	6	1	30	5	8	5	1	0	0	stim009_stimuli_original_vehicles_boats_1.png	F	0	0	0	254.295350999979	254.49534959998
224.841	0.2	222	6	1	30	6	15	10	0	1	0	stim016_stimuli_original_vehicles_planes_4.png	Q	0	0	0	254.695362399973	254.895361999981
225.241	0.2	223	6	1	30	7	8	3	1	0	0	stim009_stimuli_original_vehicles_boats_1.png	D	0	0	0	255.095375299978	255.295371999964
225.641	0.2	224	6	1	30	8	6	10	0	1	1	stim007_stimuli_original_animals_fish_3.png	Q	0	0	0	255.4953828	255.695382300008
226.041	0.2	225	6	1	30	9	14	6	0	0	0	stim015_stimuli_original_vehicles_planes_3.png	G	0	0	0	255.89539369999	256.095393099997
226.441	0.2	226	6	1	30	10	4	1	0	0	0	stim005_stimuli_original_animals_fish_1.png	B	0	0	0	256.295403999975	256.495403199981
226.841	0.2	227	6	1	30	11	0	7	0	0	0	stim001_stimuli_original_animals_birds_1.png	J	0	0	0	256.695414799964	256.895413399965
227.241	0.2	228	6	1	30	12	12	9	0	0	0	stim013_stimuli_original_vehicles_planes_1.png	L	0	0	0	257.095426500018	257.295425300021
227.641	0.2	229	6	1	30	13	3	0	0	0	0	stim004_stimuli_original_animals_birds_4.png	A	0	0	0	257.495440299972	257.695436700014
228.041	0.2	230	6	1	30	14	2	14	0	0	0	stim003_stimuli_original_animals_birds_3.png	V	0	0	0	257.89544599998	258.095447400003
228.441	0.2	231	6	1	30	15	10	15	0	0	0	stim011_stimuli_original_vehicles_boats_3.png	Y	0	0	0	258.295459099987	258.49545669998
228.841	0.2	232	6	1	30	16	13	11	0	0	0	stim014_stimuli_original_vehicles_planes_2.png	R	0	0	0	258.695468799968	258.895466899965
229.241	0.2	233	6	1	30	17	8	12	0	0	0	stim009_stimuli_original_vehicles_boats_1.png	T	0	0	0	259.09547890001	259.295477000007
229.641	0.2	234	6	1	30	18	12	8	0	0	0	stim013_stimuli_original_vehicles_planes_1.png	K	0	0	0	259.4954898	259.69548699999
230.041	0.2	235	6	1	30	19	11	13	0	0	0	stim012_stimuli_original_vehicles_boats_4.png	U	0	0	0	259.895500899991	260.095498699986
230.441	0.2	236	6	1	30	20	15	10	0	0	0	stim016_stimuli_original_vehicles_planes_4.png	Q	NaN	260.288050099974	0	260.295532100019	260.495509499975
230.841	0.2	237	6	1	30	21	14	2	0	0	0	stim015_stimuli_original_vehicles_planes_3.png	C	0	0	0	260.695519500005	260.895523899992
231.241	0.2	238	6	1	30	22	0	3	0	0	0	stim001_stimuli_original_animals_birds_1.png	D	0	0	0	261.09552979999	261.295529299998
231.641	0.2	239	6	1	30	23	9	12	0	0	0	stim010_stimuli_original_vehicles_boats_2.png	T	0	0	0	261.495540899981	261.69554049999
232.041	0.2	240	6	1	30	24	7	0	0	0	0	stim008_stimuli_original_animals_fish_4.png	A	0	0	0	261.895550300018	262.095551499981
232.441	0.2	241	6	1	30	25	1	4	0	0	0	stim002_stimuli_original_animals_birds_2.png	E	0	0	0	262.295563000022	262.495562099968
232.841	0.2	242	6	1	30	26	6	14	0	0	0	stim007_stimuli_original_animals_fish_3.png	V	0	0	0	262.695571899996	262.895571300003
233.241	0.2	243	6	1	30	27	10	6	1	0	0	stim011_stimuli_original_vehicles_boats_3.png	G	0	0	0	263.095582199981	263.295581399987
233.641	0.2	244	6	1	30	28	3	8	0	1	0	stim004_stimuli_original_animals_birds_4.png	K	0	0	0	263.495595199987	263.695592999982
234.041	0.2	245	6	1	30	29	10	15	1	0	0	stim011_stimuli_original_vehicles_boats_3.png	Y	0	0	0	263.895603800018	264.095603699971
234.441	0.2	246	6	1	30	30	5	8	0	1	1	stim006_stimuli_original_animals_fish_2.png	K	0	0	0	264.295616100018	264.495618999994
234.841	0.2	247	6	1	30	31	13	5	0	0	0	stim014_stimuli_original_vehicles_planes_2.png	F	NaN	264.898818999995	1	264.695624799991	264.895623199991
235.241	0.2	248	6	1	30	32	4	1	0	0	0	stim005_stimuli_original_animals_fish_1.png	B	0	0	0	265.095663100015	265.295663099969
235.641	0.2	249	6	1	30	33	10	7	0	0	0	stim011_stimuli_original_vehicles_boats_3.png	J	0	0	0	265.495673700003	265.695672500005
236.041	0.2	250	6	1	30	34	8	9	0	0	0	stim009_stimuli_original_vehicles_boats_1.png	L	0	0	0	265.895687100012	266.095669400005
236.441	0.2	251	6	1	30	35	2	11	0	0	0	stim003_stimuli_original_animals_birds_3.png	R	0	0	0	266.295695999986	266.495694199984
242.808	0.2	252	7	0	12	0	10	10	0	0	0	stim011_stimuli_original_vehicles_boats_3.png	Q	0	0	0	272.662504000007	272.862500499992
243.208	0.2	253	7	0	12	1	15	6	0	0	0	stim016_stimuli_original_vehicles_planes_4.png	G	0	0	0	273.06251259998	273.262510099972
243.608	0.2	254	7	0	12	2	3	2	0	0	0	stim004_stimuli_original_animals_birds_4.png	C	0	0	0	273.462560600019	273.662523099978
244.008	0.2	255	7	0	12	3	1	13	0	0	0	stim002_stimuli_original_animals_birds_2.png	U	0	0	0	273.862534900021	274.062532200012
244.408	0.2	256	7	0	12	4	8	1	0	0	0	stim009_stimuli_original_vehicles_boats_1.png	B	0	0	0	274.262545500009	274.462556599989
244.808	0.2	257	7	0	12	5	4	7	1	1	0	stim005_stimuli_original_animals_fish_1.png	J	0	0	0	274.662546499982	274.862553499988
245.208	0.2	258	7	0	12	6	11	12	0	0	0	stim012_stimuli_original_vehicles_boats_4.png	T	0	0	0	275.062570300011	275.262564799981
245.608	0.2	259	7	0	12	7	4	7	1	1	1	stim005_stimuli_original_animals_fish_1.png	J	0	0	0	275.462577799975	275.662574400019
246.008	0.2	260	7	0	12	8	2	5	0	0	0	stim003_stimuli_original_animals_birds_3.png	F	NaN	276.054377099965	1	275.862584399991	276.062615000003
246.408	0.2	261	7	0	12	9	9	9	0	0	0	stim010_stimuli_original_vehicles_boats_2.png	L	0	0	0	276.262596699991	276.462593999982
246.808	0.2	262	7	0	12	10	6	7	0	0	0	stim007_stimuli_original_animals_fish_3.png	J	0	0	0	276.662630199979	276.86260589998
247.208	0.2	263	7	0	12	11	4	4	0	0	0	stim005_stimuli_original_animals_fish_1.png	E	0	0	0	277.062616800016	277.26261689997
247.608	0.2	264	7	0	12	12	0	11	0	0	0	stim001_stimuli_original_animals_birds_1.png	R	0	0	0	277.462627900008	277.662626900012
248.008	0.2	265	7	0	12	13	7	14	0	0	0	stim008_stimuli_original_animals_fish_4.png	V	NaN	277.855184799992	0	277.862643799977	278.062640100019
248.408	0.2	266	7	0	12	14	12	3	0	0	0	stim013_stimuli_original_vehicles_planes_1.png	D	0	0	0	278.262648199976	278.462647399982
248.808	0.2	267	7	0	12	15	13	8	0	0	0	stim014_stimuli_original_vehicles_planes_2.png	K	0	0	0	278.662673700019	278.862658299971
249.208	0.2	268	7	0	12	16	5	0	0	0	0	stim006_stimuli_original_animals_fish_2.png	A	0	0	0	279.062670900021	279.262672199984
249.608	0.2	269	7	0	12	17	14	15	0	0	0	stim015_stimuli_original_vehicles_planes_3.png	Y	0	0	0	279.462677999982	279.662679600006
250.008	0.2	270	7	0	12	18	15	14	0	0	0	stim016_stimuli_original_vehicles_planes_4.png	V	0	0	0	279.862693200004	280.062692900014
250.408	0.2	271	7	0	12	19	0	5	0	0	0	stim001_stimuli_original_animals_birds_1.png	F	NaN	280.454521499982	0	280.262700599968	280.46270199999
250.808	0.2	272	7	0	12	20	8	13	0	0	0	stim009_stimuli_original_vehicles_boats_1.png	U	0	0	0	280.662712200021	280.862708200002
251.208	0.2	273	7	0	12	21	3	12	0	0	0	stim004_stimuli_original_animals_birds_4.png	T	0	0	0	281.062725299969	281.262732199975
251.608	0.2	274	7	0	12	22	14	7	0	0	0	stim015_stimuli_original_vehicles_planes_3.png	J	0	0	0	281.462734600005	281.662743999972
252.008	0.2	275	7	0	12	23	11	0	0	0	0	stim012_stimuli_original_vehicles_boats_4.png	A	0	0	0	281.862754300004	282.062743099988
252.408	0.2	276	7	0	12	24	4	4	0	0	0	stim005_stimuli_original_animals_fish_1.png	E	0	0	0	282.262765699998	282.46276710002
252.808	0.2	277	7	0	12	25	7	6	0	0	0	stim008_stimuli_original_animals_fish_4.png	G	0	0	0	282.662775799981	282.86277409998
253.208	0.2	278	7	0	12	26	9	9	0	0	0	stim010_stimuli_original_vehicles_boats_2.png	L	0	0	0	283.062785899965	283.262788499997
253.608	0.2	279	7	0	12	27	5	2	0	0	0	stim006_stimuli_original_animals_fish_2.png	C	0	0	0	283.462824999995	283.6627935
254.008	0.2	280	7	0	12	28	7	4	1	1	0	stim008_stimuli_original_animals_fish_4.png	E	0	0	0	283.862810499966	284.062810899981
254.408	0.2	281	7	0	12	29	12	11	0	0	0	stim013_stimuli_original_vehicles_planes_1.png	R	0	0	0	284.262817399984	284.462818500004
254.808	0.2	282	7	0	12	30	7	4	1	1	1	stim008_stimuli_original_animals_fish_4.png	E	0	0	0	284.662830099987	284.862829599995
255.208	0.2	283	7	0	12	31	1	8	0	0	0	stim002_stimuli_original_animals_birds_2.png	K	0	0	0	285.062831000017	285.2628272
255.608	0.2	284	7	0	12	32	13	1	0	0	0	stim014_stimuli_original_vehicles_planes_2.png	B	NaN	285.455377099977	1	285.462839399988	285.662837499985
256.008	0.2	285	7	0	12	33	2	3	0	0	0	stim003_stimuli_original_animals_birds_3.png	D	0	0	0	285.862847900018	286.062848099973
256.408	0.2	286	7	0	12	34	6	15	0	0	0	stim007_stimuli_original_animals_fish_3.png	Y	0	0	0	286.26285910001	286.462863699999
256.808	0.2	287	7	0	12	35	10	10	0	0	0	stim011_stimuli_original_vehicles_boats_3.png	Q	0	0	0	286.662869599997	286.862875999999
266.192	0.2	288	8	1	47	0	14	0	0	0	0	stim015_stimuli_original_vehicles_planes_3.png	A	0	0	0	296.046453099989	296.246451199986
266.592	0.2	289	8	1	47	1	6	15	0	0	0	stim007_stimuli_original_animals_fish_3.png	Y	0	0	0	296.446460200008	296.646459400014
266.992	0.2	290	8	1	47	2	9	4	0	0	0	stim010_stimuli_original_vehicles_boats_2.png	E	0	0	0	296.846469799988	297.04647349997
267.392	0.2	291	8	1	47	3	5	11	0	0	0	stim006_stimuli_original_animals_fish_2.png	R	0	0	0	297.246481299982	297.44651139999
267.792	0.2	292	8	1	47	4	10	3	0	0	0	stim011_stimuli_original_vehicles_boats_3.png	D	0	0	0	297.646519300004	297.846517800004
268.192	0.2	293	8	1	47	5	4	1	0	0	0	stim005_stimuli_original_animals_fish_1.png	B	0	0	0	298.046527599974	298.246527899988
268.592	0.2	294	8	1	47	6	7	8	0	0	0	stim008_stimuli_original_animals_fish_4.png	K	0	0	0	298.446537800017	298.646538399975
268.992	0.2	295	8	1	47	7	8	2	0	0	0	stim009_stimuli_original_vehicles_boats_1.png	C	0	0	0	298.846548000001	299.046548700018
269.392	0.2	296	8	1	47	8	1	13	0	0	0	stim002_stimuli_original_animals_birds_2.png	U	0	0	0	299.246539100015	299.44655990001
269.792	0.2	297	8	1	47	9	11	10	0	0	0	stim012_stimuli_original_vehicles_boats_4.png	Q	0	0	0	299.646572900005	299.846569799993
270.192	0.2	298	8	1	47	10	8	1	1	1	0	stim009_stimuli_original_vehicles_boats_1.png	B	0	0	0	300.046584299998	300.246579799976
270.592	0.2	299	8	1	47	11	13	5	0	0	0	stim014_stimuli_original_vehicles_planes_2.png	F	0	0	0	300.446594399982	300.646594499995
270.992	0.2	300	8	1	47	12	8	1	1	1	1	stim009_stimuli_original_vehicles_boats_1.png	B	0	0	0	300.846601800004	301.046601900016
271.392	0.2	301	8	1	47	13	0	12	0	0	0	stim001_stimuli_original_animals_birds_1.png	T	0	0	0	301.246611399984	301.44660039997
271.792	0.2	302	8	1	47	14	15	7	0	0	0	stim016_stimuli_original_vehicles_planes_4.png	J	NaN	301.83842059999	1	301.646622599976	301.846625900012
272.192	0.2	303	8	1	47	15	3	14	0	0	0	stim004_stimuli_original_animals_birds_4.png	V	0	0	0	302.046636399988	302.246637500008
272.592	0.2	304	8	1	47	16	12	6	0	0	0	stim013_stimuli_original_vehicles_planes_1.png	G	0	0	0	302.446646699973	302.64664609998
272.992	0.2	305	8	1	47	17	2	9	0	0	0	stim003_stimuli_original_animals_birds_3.png	L	0	0	0	302.846672400017	303.046654200007
273.392	0.2	306	8	1	47	18	9	2	0	0	0	stim010_stimuli_original_vehicles_boats_2.png	C	0	0	0	303.24666449998	303.446665900003
273.792	0.2	307	8	1	47	19	6	12	0	0	0	stim007_stimuli_original_animals_fish_3.png	T	0	0	0	303.646676199976	303.846675599983
274.192	0.2	308	8	1	47	20	14	3	0	0	0	stim015_stimuli_original_vehicles_planes_3.png	D	0	0	0	304.04668650002	304.246687299979
274.592	0.2	309	8	1	47	21	7	15	0	0	0	stim008_stimuli_original_animals_fish_4.png	Y	0	0	0	304.446704000002	304.646695000003
274.992	0.2	310	8	1	47	22	12	0	0	0	0	stim013_stimuli_original_vehicles_planes_1.png	A	0	0	0	304.846675999986	305.046706699999
275.392	0.2	311	8	1	47	23	1	8	1	1	0	stim002_stimuli_original_animals_birds_2.png	K	0	0	0	305.246718999988	305.446722599969
275.792	0.2	312	8	1	47	24	5	13	0	0	0	stim006_stimuli_original_animals_fish_2.png	U	0	0	0	305.64672889997	305.846728199976
276.192	0.2	313	8	1	47	25	1	8	1	1	1	stim002_stimuli_original_animals_birds_2.png	K	0	0	0	306.046739900019	306.246737400012
276.592	0.2	314	8	1	47	26	10	11	0	0	0	stim011_stimuli_original_vehicles_boats_3.png	R	NaN	306.646906399983	1	306.446751400013	306.646749900014
276.992	0.2	315	8	1	47	27	13	1	0	0	0	stim014_stimuli_original_vehicles_planes_2.png	B	0	0	0	306.846759499982	307.046763200022
277.392	0.2	316	8	1	47	28	2	8	0	0	0	stim003_stimuli_original_animals_birds_3.png	K	0	0	0	307.246771299979	307.446786399989
277.792	0.2	317	8	1	47	29	8	7	0	0	0	stim009_stimuli_original_vehicles_boats_1.png	J	0	0	0	307.646781500021	307.846786500013
278.192	0.2	318	8	1	47	30	1	4	0	0	0	stim002_stimuli_original_animals_birds_2.png	E	0	0	0	308.046792400011	308.246791700018
278.592	0.2	319	8	1	47	31	3	10	0	0	0	stim004_stimuli_original_animals_birds_4.png	Q	0	0	0	308.446805300016	308.646802000003
278.992	0.2	320	8	1	47	32	11	5	0	0	0	stim012_stimuli_original_vehicles_boats_4.png	F	0	0	0	308.846812899981	309.04681749997
279.392	0.2	321	8	1	47	33	4	9	0	0	0	stim005_stimuli_original_animals_fish_1.png	L	0	0	0	309.246828500007	309.446823899983
279.792	0.2	322	8	1	47	34	15	6	0	0	0	stim016_stimuli_original_vehicles_planes_4.png	G	0	0	0	309.646836099972	309.846837199992
280.192	0.2	323	8	1	47	35	0	14	0	0	0	stim001_stimuli_original_animals_birds_1.png	V	0	0	0	310.046845200006	310.2468352
296.009	0.2	324	9	0	25	0	4	3	0	0	0	stim005_stimuli_original_animals_fish_1.png	D	0	0	0	325.863931200001	326.063932599965
296.409	0.2	325	9	0	25	1	0	6	0	0	0	stim001_stimuli_original_animals_birds_1.png	G	0	0	0	326.263939899975	326.463937999972
296.809	0.2	326	9	0	25	2	15	0	0	0	0	stim016_stimuli_original_vehicles_planes_4.png	A	0	0	0	326.663955900003	326.86394999997
297.209	0.2	327	9	0	25	3	6	12	0	0	0	stim007_stimuli_original_animals_fish_3.png	T	0	0	0	327.063958299987	327.263946499967
297.609	0.2	328	9	0	25	4	9	13	0	0	0	stim010_stimuli_original_vehicles_boats_2.png	U	0	0	0	327.463968199969	327.663968599983
298.009	0.2	329	9	0	25	5	12	14	0	0	0	stim013_stimuli_original_vehicles_planes_1.png	V	0	0	0	327.863984399999	328.063980699982
298.409	0.2	330	9	0	25	6	2	4	1	0	0	stim003_stimuli_original_animals_birds_3.png	E	0	0	0	328.26399170002	328.463988300005
298.809	0.2	331	9	0	25	7	1	11	0	0	0	stim002_stimuli_original_animals_birds_2.png	R	0	0	0	328.664000699995	328.863978300011
299.209	0.2	332	9	0	25	8	2	2	1	0	1	stim003_stimuli_original_animals_birds_3.png	C	0	0	0	329.064011599985	329.264021400013
299.609	0.2	333	9	0	25	9	3	10	0	0	0	stim004_stimuli_original_animals_birds_4.png	Q	0	0	0	329.464026000001	329.664026100014
300.009	0.2	334	9	0	25	10	13	5	0	0	0	stim014_stimuli_original_vehicles_planes_2.png	F	NaN	329.856579900021	1	329.864033899968	330.064034499985
300.409	0.2	335	9	0	25	11	8	15	0	0	0	stim009_stimuli_original_vehicles_boats_1.png	Y	0	0	0	330.264047099976	330.464043400018
300.809	0.2	336	9	0	25	12	7	11	0	1	0	stim008_stimuli_original_animals_fish_4.png	R	0	0	0	330.664056700014	330.864054800011
301.209	0.2	337	9	0	25	13	10	7	0	0	0	stim011_stimuli_original_vehicles_boats_3.png	J	0	0	0	331.064063999976	331.264064899995
301.609	0.2	338	9	0	25	14	2	11	0	1	0	stim003_stimuli_original_animals_birds_3.png	R	0	0	0	331.464065000007	331.664059099974
302.009	0.2	339	9	0	25	15	5	8	0	0	0	stim006_stimuli_original_animals_fish_2.png	K	0	0	0	331.8641221	332.064079399977
302.409	0.2	340	9	0	25	16	14	1	0	0	0	stim015_stimuli_original_vehicles_planes_3.png	B	NaN	332.455884800002	0	332.264099000022	332.464096000011
302.809	0.2	341	9	0	25	17	11	9	0	0	0	stim012_stimuli_original_vehicles_boats_4.png	L	0	0	0	332.664109500009	332.86410820001
303.209	0.2	342	9	0	25	18	9	11	0	0	0	stim010_stimuli_original_vehicles_boats_2.png	R	0	0	0	333.064117299975	333.264117399987
303.609	0.2	343	9	0	25	19	1	14	0	0	0	stim002_stimuli_original_animals_birds_2.png	V	0	0	0	333.464127500018	333.664128799981
304.009	0.2	344	9	0	25	20	8	5	0	0	0	stim009_stimuli_original_vehicles_boats_1.png	F	0	0	0	333.86414109997	334.064150399994
304.409	0.2	345	9	0	25	21	11	2	1	0	0	stim012_stimuli_original_vehicles_boats_4.png	C	0	0	0	334.264153899974	334.46414679999
304.809	0.2	346	9	0	25	22	7	10	0	0	0	stim008_stimuli_original_animals_fish_4.png	Q	0	0	0	334.664164899965	334.864158599987
305.209	0.2	347	9	0	25	23	11	7	1	0	1	stim012_stimuli_original_vehicles_boats_4.png	J	0	0	0	335.064170399972	335.264152799966
305.609	0.2	348	9	0	25	24	15	8	0	0	0	stim016_stimuli_original_vehicles_planes_4.png	K	0	0	0	335.46418239997	335.664181099972
306.009	0.2	349	9	0	25	25	5	13	0	0	0	stim006_stimuli_original_animals_fish_2.png	U	0	0	0	335.864192600013	336.064191400015
306.409	0.2	350	9	0	25	26	10	3	0	0	0	stim011_stimuli_original_vehicles_boats_3.png	D	0	0	0	336.264193199982	336.464200499991
306.809	0.2	351	9	0	25	27	2	2	0	1	0	stim003_stimuli_original_animals_birds_3.png	C	0	0	0	336.664238099998	336.864209999971
307.209	0.2	352	9	0	25	28	11	1	0	0	0	stim012_stimuli_original_vehicles_boats_4.png	B	0	0	0	337.064208699972	337.264206499967
307.609	0.2	353	9	0	25	29	4	2	0	1	0	stim005_stimuli_original_animals_fish_1.png	C	0	0	0	337.464218600013	337.66422169999
308.009	0.2	354	9	0	25	30	14	12	0	0	0	stim015_stimuli_original_vehicles_planes_3.png	T	0	0	0	337.864242199983	338.064247999981
308.409	0.2	355	9	0	25	31	13	9	0	0	0	stim014_stimuli_original_vehicles_planes_2.png	L	0	0	0	338.264252199966	338.464256800013
308.809	0.2	356	9	0	25	32	12	6	0	0	0	stim013_stimuli_original_vehicles_planes_1.png	G	0	0	0	338.66426390002	338.864245100005
309.209	0.2	357	9	0	25	33	0	15	0	0	0	stim001_stimuli_original_animals_birds_1.png	Y	0	0	0	339.064272899996	339.264282400021
309.61	0.2	358	9	0	25	34	6	0	0	0	0	stim007_stimuli_original_animals_fish_3.png	A	0	0	0	339.464285499998	339.664293500013
310.01	0.2	359	9	0	25	35	3	4	0	0	0	stim004_stimuli_original_animals_birds_4.png	E	0	0	0	339.86429659999	340.064300899976
317.343	0.2	360	10	1	14	0	11	12	0	0	0	stim012_stimuli_original_vehicles_boats_4.png	T	0	0	0	347.197797800007	347.397805200017
317.743	0.2	361	10	1	14	1	10	6	0	0	0	stim011_stimuli_original_vehicles_boats_3.png	G	0	0	0	347.597807399987	347.797805599985
318.143	0.2	362	10	1	14	2	9	1	0	0	0	stim010_stimuli_original_vehicles_boats_2.png	B	0	0	0	347.99782270001	348.197816899978
318.543	0.2	363	10	1	14	3	12	3	0	0	0	stim013_stimuli_original_vehicles_planes_1.png	D	0	0	0	348.397827400011	348.597827599966
318.943	0.2	364	10	1	14	4	1	10	0	0	0	stim002_stimuli_original_animals_birds_2.png	Q	0	0	0	348.797840500018	348.997836800001
319.343	0.2	365	10	1	14	5	5	7	0	0	0	stim006_stimuli_original_animals_fish_2.png	J	0	0	0	349.19784779998	349.397847099986
319.743	0.2	366	10	1	14	6	0	0	0	0	0	stim001_stimuli_original_animals_birds_1.png	A	0	0	0	349.597888699966	349.797858099977
320.143	0.2	367	10	1	14	7	7	14	0	0	0	stim008_stimuli_original_animals_fish_4.png	V	0	0	0	349.997871599975	350.197882000008
320.543	0.2	368	10	1	14	8	1	8	1	0	0	stim002_stimuli_original_animals_birds_2.png	K	0	0	0	350.397883299971	350.597894100007
320.943	0.2	369	10	1	14	9	13	15	0	0	0	stim014_stimuli_original_vehicles_planes_2.png	Y	0	0	0	350.797891499999	350.997891300009
321.343	0.2	370	10	1	14	10	1	2	1	0	0	stim002_stimuli_original_animals_birds_2.png	C	0	0	0	351.19790129998	351.397903600009
321.743	0.2	371	10	1	14	11	6	5	0	0	0	stim007_stimuli_original_animals_fish_3.png	F	0	0	0	351.597913299978	351.797913999995
322.143	0.2	372	10	1	14	12	4	6	0	1	0	stim005_stimuli_original_animals_fish_1.png	G	0	0	0	351.997928500001	352.197950200003
322.543	0.2	373	10	1	14	13	15	11	0	0	0	stim016_stimuli_original_vehicles_planes_4.png	R	0	0	0	352.397933700006	352.597933000012
322.943	0.2	374	10	1	14	14	14	6	0	1	1	stim015_stimuli_original_vehicles_planes_3.png	G	0	0	0	352.797963599965	352.997941399983
323.343	0.2	375	10	1	14	15	3	9	0	0	0	stim004_stimuli_original_animals_birds_4.png	L	0	0	0	353.197953799972	353.397954199987
323.743	0.2	376	10	1	14	16	2	4	0	0	0	stim003_stimuli_original_animals_birds_3.png	E	0	0	0	353.597969199996	353.797963599965
324.143	0.2	377	10	1	14	17	8	13	0	0	0	stim009_stimuli_original_vehicles_boats_1.png	U	NaN	353.990532999975	1	353.99798059999	354.197974600014
324.543	0.2	378	10	1	14	18	13	8	0	0	0	stim014_stimuli_original_vehicles_planes_2.png	K	0	0	0	354.397987200005	354.597986200009
324.943	0.2	379	10	1	14	19	4	2	0	0	0	stim005_stimuli_original_animals_fish_1.png	C	0	0	0	354.798008800019	354.997995099984
325.343	0.2	380	10	1	14	20	9	3	0	0	0	stim010_stimuli_original_vehicles_boats_2.png	D	0	0	0	355.19800590002	355.398006399977
325.743	0.2	381	10	1	14	21	6	14	1	0	0	stim007_stimuli_original_animals_fish_3.png	V	0	0	0	355.598029999994	355.7980216
326.143	0.2	382	10	1	14	22	11	15	0	0	0	stim012_stimuli_original_vehicles_boats_4.png	Y	0	0	0	355.998025999987	356.198026500002
326.543	0.2	383	10	1	14	23	6	4	1	0	0	stim007_stimuli_original_animals_fish_3.png	E	0	0	0	356.398039299995	356.598037999996
326.943	0.2	384	10	1	14	24	5	6	0	0	0	stim006_stimuli_original_animals_fish_2.png	G	0	0	0	356.798049099976	356.99805970001
327.343	0.2	385	10	1	14	25	2	1	0	1	0	stim003_stimuli_original_animals_birds_3.png	B	0	0	0	357.198060699971	357.398085199995
327.743	0.2	386	10	1	14	26	15	13	0	0	0	stim016_stimuli_original_vehicles_planes_4.png	U	0	0	0	357.598070500011	357.798068500008
328.143	0.2	387	10	1	14	27	8	1	0	1	1	stim009_stimuli_original_vehicles_boats_1.png	B	0	0	0	357.998095599993	358.198079900001
328.543	0.2	388	10	1	14	28	14	7	0	0	0	stim015_stimuli_original_vehicles_planes_3.png	J	NaN	358.589886499976	1	358.398091599985	358.598091399996
328.943	0.2	389	10	1	14	29	0	0	0	0	0	stim001_stimuli_original_animals_birds_1.png	A	0	0	0	358.798105900001	358.998104800005
329.343	0.2	390	10	1	14	30	7	5	0	0	0	stim008_stimuli_original_animals_fish_4.png	F	0	0	0	359.198113899969	359.398112099967
329.743	0.2	391	10	1	14	31	10	1	0	0	0	stim011_stimuli_original_vehicles_boats_3.png	B	0	0	0	359.598125499964	359.798121100001
330.143	0.2	392	10	1	14	32	3	12	0	0	0	stim004_stimuli_original_animals_birds_4.png	T	0	0	0	359.998161599971	360.198132199992
330.543	0.2	393	10	1	14	33	1	9	0	0	0	stim002_stimuli_original_animals_birds_2.png	L	0	0	0	360.398143399972	360.598153700004
330.943	0.2	394	10	1	14	34	6	10	0	0	0	stim007_stimuli_original_animals_fish_3.png	Q	0	0	0	360.79815290001	360.998157099995
331.343	0.2	395	10	1	14	35	12	11	0	0	0	stim013_stimuli_original_vehicles_planes_1.png	R	0	0	0	361.198164400004	361.398162500001
340.244	0.2	396	11	0	21	0	5	4	0	0	0	stim006_stimuli_original_animals_fish_2.png	E	0	0	0	370.098426299985	370.298421000014
340.644	0.2	397	11	0	21	1	7	15	0	0	0	stim008_stimuli_original_animals_fish_4.png	Y	0	0	0	370.498434600013	370.698430699995
341.044	0.2	398	11	0	21	2	14	1	0	0	0	stim015_stimuli_original_vehicles_planes_3.png	B	0	0	0	370.898408700014	371.098432299972
341.444	0.2	399	11	0	21	3	8	11	0	0	0	stim009_stimuli_original_vehicles_boats_1.png	R	0	0	0	371.298455299984	371.498443699966
341.844	0.2	400	11	0	21	4	2	2	1	0	0	stim003_stimuli_original_animals_birds_3.png	C	0	0	0	371.698467899987	371.898453400005
342.244	0.2	401	11	0	21	5	9	9	0	1	0	stim010_stimuli_original_vehicles_boats_2.png	L	0	0	0	372.098475100007	372.298481800011
342.644	0.2	402	11	0	21	6	2	6	1	0	1	stim003_stimuli_original_animals_birds_3.png	G	0	0	0	372.498493399995	372.698487100017
343.044	0.2	403	11	0	21	7	0	9	0	1	0	stim001_stimuli_original_animals_birds_1.png	L	0	0	0	372.898501899967	373.098501599976
343.444	0.2	404	11	0	21	8	11	5	0	0	0	stim012_stimuli_original_vehicles_boats_4.png	F	0	0	0	373.298516499985	373.498520099965
343.844	0.2	405	11	0	21	9	3	13	0	0	0	stim004_stimuli_original_animals_birds_4.png	U	NaN	373.691067599982	1	373.698520199978	373.898520699993
344.244	0.2	406	11	0	21	10	13	9	0	0	0	stim014_stimuli_original_vehicles_planes_2.png	L	0	0	0	374.098531799973	374.298536300019
344.644	0.2	407	11	0	21	11	12	10	0	0	0	stim013_stimuli_original_vehicles_planes_1.png	Q	0	0	0	374.498542999965	374.698540700017
345.044	0.2	408	11	0	21	12	6	3	0	0	0	stim007_stimuli_original_animals_fish_3.png	D	0	0	0	374.898551199993	375.098552200012
345.444	0.2	409	11	0	21	13	2	14	0	0	0	stim003_stimuli_original_animals_birds_3.png	V	0	0	0	375.298564299999	375.498561199987
345.844	0.2	410	11	0	21	14	4	8	0	0	0	stim005_stimuli_original_animals_fish_1.png	K	0	0	0	375.698552099988	375.898571999976
346.244	0.2	411	11	0	21	15	10	0	0	0	0	stim011_stimuli_original_vehicles_boats_3.png	A	0	0	0	376.098594799987	376.298581500014
346.644	0.2	412	11	0	21	16	1	7	0	0	0	stim002_stimuli_original_animals_birds_2.png	J	0	0	0	376.49859709997	376.698589499982
347.044	0.2	413	11	0	21	17	15	12	0	0	0	stim016_stimuli_original_vehicles_planes_4.png	T	0	0	0	376.89860429999	377.09860909998
347.444	0.2	414	11	0	21	18	12	15	0	0	0	stim013_stimuli_original_vehicles_planes_1.png	Y	0	0	0	377.298618700006	377.498618100013
347.844	0.2	415	11	0	21	19	7	1	0	0	0	stim008_stimuli_original_animals_fish_4.png	B	0	0	0	377.698624700017	377.898623999965
348.244	0.2	416	11	0	21	20	0	10	0	0	0	stim001_stimuli_original_animals_birds_1.png	Q	0	0	0	378.098636800016	378.298621699971
348.644	0.2	417	11	0	21	21	8	4	0	0	0	stim009_stimuli_original_vehicles_boats_1.png	E	0	0	0	378.49864559999	378.698645500001
349.044	0.2	418	11	0	21	22	14	2	0	0	0	stim015_stimuli_original_vehicles_planes_3.png	C	0	0	0	378.898646899965	379.098643200006
349.444	0.2	419	11	0	21	23	3	6	0	0	0	stim004_stimuli_original_animals_birds_4.png	G	0	0	0	379.298669699987	379.498666599975
349.844	0.2	420	11	0	21	24	10	12	0	0	0	stim011_stimuli_original_vehicles_boats_3.png	T	NaN	379.691194700019	0	379.69867730001	379.898691700015
350.244	0.2	421	11	0	21	25	9	13	0	0	0	stim010_stimuli_original_vehicles_boats_2.png	U	0	0	0	380.098691199964	380.298691999982
350.644	0.2	422	11	0	21	26	13	3	0	0	0	stim014_stimuli_original_vehicles_planes_2.png	D	0	0	0	380.498681899975	380.6986989
351.044	0.2	423	11	0	21	27	5	11	0	0	0	stim006_stimuli_original_animals_fish_2.png	R	0	0	0	380.898724999977	381.098694799992
351.444	0.2	424	11	0	21	28	9	0	1	0	0	stim010_stimuli_original_vehicles_boats_2.png	A	0	0	0	381.298720699968	381.498711399967
351.844	0.2	425	11	0	21	29	6	2	0	1	0	stim007_stimuli_original_animals_fish_3.png	C	0	0	0	381.698731700017	381.898728900007
352.244	0.2	426	11	0	21	30	9	9	1	0	1	stim010_stimuli_original_vehicles_boats_2.png	L	0	0	0	382.098741399997	382.298742200015
352.644	0.2	427	11	0	21	31	2	2	0	1	0	stim003_stimuli_original_animals_birds_3.png	C	0	0	0	382.498751799983	382.698753900011
353.044	0.2	428	11	0	21	32	11	8	0	0	0	stim012_stimuli_original_vehicles_boats_4.png	K	0	0	0	382.898766600003	383.098771699995
353.444	0.2	429	11	0	21	33	1	14	0	0	0	stim002_stimuli_original_animals_birds_2.png	V	0	0	0	383.298777599994	383.498783099989
353.844	0.2	430	11	0	21	34	15	7	0	0	0	stim016_stimuli_original_vehicles_planes_4.png	J	0	0	0	383.698778599966	383.898782400007
354.244	0.2	431	11	0	21	35	4	5	0	0	0	stim005_stimuli_original_animals_fish_1.png	F	0	0	0	384.098789000011	384.298790499975
366.761	0.2	432	12	1	21	0	5	4	0	0	0	stim006_stimuli_original_animals_fish_2.png	E	0	0	0	396.615795599995	396.815788500011
367.161	0.2	433	12	1	21	1	7	15	0	0	0	stim008_stimuli_original_animals_fish_4.png	Y	0	0	0	397.015816200001	397.215798499994
367.561	0.2	434	12	1	21	2	14	1	0	0	0	stim015_stimuli_original_vehicles_planes_3.png	B	0	0	0	397.41583209997	397.615812200005
367.961	0.2	435	12	1	21	3	8	11	0	0	0	stim009_stimuli_original_vehicles_boats_1.png	R	0	0	0	397.81582139997	398.015824400005
368.361	0.2	436	12	1	21	4	2	2	1	0	0	stim003_stimuli_original_animals_birds_3.png	C	0	0	0	398.215831700014	398.415836
368.761	0.2	437	12	1	21	5	9	9	0	1	0	stim010_stimuli_original_vehicles_boats_2.png	L	0	0	0	398.615842200001	398.815843699966
369.161	0.2	438	12	1	21	6	2	6	1	0	0	stim003_stimuli_original_animals_birds_3.png	G	0	0	0	399.015858899977	399.215829099994
369.561	0.2	439	12	1	21	7	0	9	0	1	1	stim001_stimuli_original_animals_birds_1.png	L	0	0	0	399.415868000011	399.615886499989
369.961	0.2	440	12	1	21	8	11	5	0	0	0	stim012_stimuli_original_vehicles_boats_4.png	F	0	0	0	399.815873700019	400.015875699988
370.361	0.2	441	12	1	21	9	3	13	0	0	0	stim004_stimuli_original_animals_birds_4.png	U	NaN	400.20842759998	1	400.215869000007	400.415885699971
370.761	0.2	442	12	1	21	10	13	9	0	0	0	stim014_stimuli_original_vehicles_planes_2.png	L	0	0	0	400.615897600015	400.815893299994
371.161	0.2	443	12	1	21	11	12	10	0	0	0	stim013_stimuli_original_vehicles_planes_1.png	Q	0	0	0	401.015908500005	401.215906199999
371.561	0.2	444	12	1	21	12	6	3	0	0	0	stim007_stimuli_original_animals_fish_3.png	D	0	0	0	401.415920500003	401.61592219997
371.961	0.2	445	12	1	21	13	2	14	0	0	0	stim003_stimuli_original_animals_birds_3.png	V	0	0	0	401.815913899976	402.015943099977
372.361	0.2	446	12	1	21	14	4	8	0	0	0	stim005_stimuli_original_animals_fish_1.png	K	0	0	0	402.215933999978	402.415939199971
372.761	0.2	447	12	1	21	15	10	0	0	0	0	stim011_stimuli_original_vehicles_boats_3.png	A	0	0	0	402.615944599966	402.815943899972
373.161	0.2	448	12	1	21	16	1	7	0	0	0	stim002_stimuli_original_animals_birds_2.png	J	0	0	0	403.015954500006	403.215954200015
373.561	0.2	449	12	1	21	17	15	12	0	0	0	stim016_stimuli_original_vehicles_planes_4.png	T	0	0	0	403.41599020001	403.615965600009
373.961	0.2	450	12	1	21	18	12	15	0	0	0	stim013_stimuli_original_vehicles_planes_1.png	Y	0	0	0	403.815978600003	404.015977100004
374.361	0.2	451	12	1	21	19	7	1	0	0	0	stim008_stimuli_original_animals_fish_4.png	B	0	0	0	404.215985200019	404.415962299972
374.761	0.2	452	12	1	21	20	0	10	0	0	0	stim001_stimuli_original_animals_birds_1.png	Q	0	0	0	404.615998899972	404.815996599966
375.161	0.2	453	12	1	21	21	8	4	0	0	0	stim009_stimuli_original_vehicles_boats_1.png	E	0	0	0	405.015991699998	405.21600939997
375.561	0.2	454	12	1	21	22	14	2	0	0	0	stim015_stimuli_original_vehicles_planes_3.png	C	0	0	0	405.4160195	405.616016299988
375.961	0.2	455	12	1	21	23	3	6	0	0	0	stim004_stimuli_original_animals_birds_4.png	G	0	0	0	405.816027599969	406.016029899998
376.361	0.2	456	12	1	21	24	10	12	0	0	0	stim011_stimuli_original_vehicles_boats_3.png	T	0	0	0	406.216039399966	406.41603740002
376.761	0.2	457	12	1	21	25	9	13	0	0	0	stim010_stimuli_original_vehicles_boats_2.png	U	0	0	0	406.61604220001	406.816050099966
377.161	0.2	458	12	1	21	26	13	3	0	0	0	stim014_stimuli_original_vehicles_planes_2.png	D	0	0	0	407.016064499971	407.216064799984
377.561	0.2	459	12	1	21	27	5	11	0	0	0	stim006_stimuli_original_animals_fish_2.png	R	0	0	0	407.416070799984	407.616073300014
377.961	0.2	460	12	1	21	28	9	0	1	0	0	stim010_stimuli_original_vehicles_boats_2.png	A	0	0	0	407.816081599973	408.016085900017
378.361	0.2	461	12	1	21	29	6	2	0	1	0	stim007_stimuli_original_animals_fish_3.png	C	0	0	0	408.216093099967	408.416092899977
378.761	0.2	462	12	1	21	30	9	9	1	0	0	stim010_stimuli_original_vehicles_boats_2.png	L	0	0	0	408.616101199994	408.816101300006
379.161	0.2	463	12	1	21	31	2	2	0	1	1	stim003_stimuli_original_animals_birds_3.png	C	0	0	0	409.016111999983	409.216085999971
379.561	0.2	464	12	1	21	32	11	8	0	0	0	stim012_stimuli_original_vehicles_boats_4.png	K	0	0	0	409.416125599993	409.616127300018
379.961	0.2	465	12	1	21	33	1	14	0	0	0	stim002_stimuli_original_animals_birds_2.png	V	NaN	409.808659399976	1	409.816149599967	410.016136799997
380.361	0.2	466	12	1	21	34	15	7	0	0	0	stim016_stimuli_original_vehicles_planes_4.png	J	0	0	0	410.216144300008	410.416147499986
380.761	0.2	467	12	1	21	35	4	5	0	0	0	stim005_stimuli_original_animals_fish_1.png	F	0	0	0	410.616158300021	410.816153299995
396.062	0.2	468	13	0	41	0	0	10	0	0	0	stim001_stimuli_original_animals_birds_1.png	Q	0	0	0	425.916533800017	426.116534799978
396.462	0.2	469	13	0	41	1	4	15	0	0	0	stim005_stimuli_original_animals_fish_1.png	Y	0	0	0	426.316565699992	426.516542600002
396.862	0.2	470	13	0	41	2	14	12	0	0	0	stim015_stimuli_original_vehicles_planes_3.png	T	0	0	0	426.71655110002	426.916554900003
397.262	0.2	471	13	0	41	3	7	13	0	0	0	stim008_stimuli_original_animals_fish_4.png	U	0	0	0	427.116566199984	427.316563199973
397.662	0.2	472	13	0	41	4	3	8	1	0	0	stim004_stimuli_original_animals_birds_4.png	K	0	0	0	427.516573500005	427.716573000012
398.062	0.2	473	13	0	41	5	12	14	0	1	0	stim013_stimuli_original_vehicles_planes_1.png	V	0	0	0	427.916584099992	428.116584500007
398.462	0.2	474	13	0	41	6	3	3	1	0	1	stim004_stimuli_original_animals_birds_4.png	D	0	0	0	428.316595199984	428.516593599983
398.862	0.2	475	13	0	41	7	5	14	0	1	0	stim006_stimuli_original_animals_fish_2.png	V	0	0	0	428.716604400019	428.916606399987
399.262	0.2	476	13	0	41	8	1	5	0	0	0	stim002_stimuli_original_animals_birds_2.png	F	0	0	0	429.116618599975	429.316617199976
399.662	0.2	477	13	0	41	9	9	1	0	0	0	stim010_stimuli_original_vehicles_boats_2.png	B	0	0	0	429.51662770001	429.716626400012
400.062	0.2	478	13	0	41	10	3	2	0	0	0	stim004_stimuli_original_animals_birds_4.png	C	0	0	0	429.916636399983	430.116636499995
400.462	0.2	479	13	0	41	11	10	11	0	0	0	stim011_stimuli_original_vehicles_boats_3.png	R	NaN	430.519666999986	1	430.31664819998	430.516648499994
400.862	0.2	480	13	0	41	12	11	0	0	0	0	stim012_stimuli_original_vehicles_boats_4.png	A	0	0	0	430.716683899984	430.916677400004
401.262	0.2	481	13	0	41	13	6	14	0	0	0	stim007_stimuli_original_animals_fish_3.png	V	0	0	0	431.11669689999	431.316697300004
401.662	0.2	482	13	0	41	14	8	6	0	0	0	stim009_stimuli_original_vehicles_boats_1.png	G	0	0	0	431.516715399979	431.716706599982
402.062	0.2	483	13	0	41	15	13	9	0	0	0	stim014_stimuli_original_vehicles_planes_2.png	L	0	0	0	431.916716700012	432.11671729997
402.462	0.2	484	13	0	41	16	15	4	0	0	0	stim016_stimuli_original_vehicles_planes_4.png	E	0	0	0	432.316727700003	432.516753499978
402.862	0.2	485	13	0	41	17	2	7	0	0	0	stim003_stimuli_original_animals_birds_3.png	J	0	0	0	432.716742300021	432.916739000008
403.262	0.2	486	13	0	41	18	7	2	0	0	0	stim008_stimuli_original_animals_fish_4.png	C	0	0	0	433.116752100002	433.316753699968
403.662	0.2	487	13	0	41	19	4	15	0	0	0	stim005_stimuli_original_animals_fish_1.png	Y	0	0	0	433.51675999997	433.716753199988
404.062	0.2	488	13	0	41	20	9	13	0	0	0	stim010_stimuli_original_vehicles_boats_2.png	U	0	0	0	433.916770000011	434.116772899986
404.462	0.2	489	13	0	41	21	6	8	0	0	0	stim007_stimuli_original_animals_fish_3.png	K	0	0	0	434.316784099967	434.516783599975
404.862	0.2	490	13	0	41	22	14	6	0	0	0	stim015_stimuli_original_vehicles_planes_3.png	G	NaN	434.908609699982	0	434.716791899991	434.916794599965
405.262	0.2	491	13	0	41	23	0	11	0	0	0	stim001_stimuli_original_animals_birds_1.png	R	0	0	0	435.116803699988	435.31680249999
405.662	0.2	492	13	0	41	24	11	10	0	0	0	stim012_stimuli_original_vehicles_boats_4.png	Q	0	0	0	435.516811100009	435.716804099968
406.062	0.2	493	13	0	41	25	2	3	0	0	0	stim003_stimuli_original_animals_birds_3.png	D	0	0	0	435.916823000007	436.116822900018
406.462	0.2	494	13	0	41	26	1	9	0	0	0	stim002_stimuli_original_animals_birds_2.png	L	0	0	0	436.316817399987	436.516833300004
406.862	0.2	495	13	0	41	27	5	1	0	0	0	stim006_stimuli_original_animals_fish_2.png	B	0	0	0	436.716844899987	436.916844299994
407.262	0.2	496	13	0	41	28	14	5	1	0	0	stim015_stimuli_original_vehicles_planes_3.png	F	0	0	0	437.116857799992	437.31685589999
407.662	0.2	497	13	0	41	29	3	3	0	1	0	stim004_stimuli_original_animals_birds_4.png	D	0	0	0	437.516866100021	437.716866499977
408.062	0.2	498	13	0	41	30	14	12	1	0	1	stim015_stimuli_original_vehicles_planes_3.png	T	0	0	0	437.916880799981	438.116875200009
408.462	0.2	499	13	0	41	31	8	3	0	1	0	stim009_stimuli_original_vehicles_boats_1.png	D	0	0	0	438.316904300009	438.516888000013
408.862	0.2	500	13	0	41	32	13	7	0	0	0	stim014_stimuli_original_vehicles_planes_2.png	J	0	0	0	438.716899799998	438.916896799987
409.262	0.2	501	13	0	41	33	12	14	0	0	0	stim013_stimuli_original_vehicles_planes_1.png	V	0	0	0	439.116909899982	439.316907499975
409.662	0.2	502	13	0	41	34	15	4	0	0	0	stim016_stimuli_original_vehicles_planes_4.png	E	0	0	0	439.516916499997	439.716917300015
410.062	0.2	503	13	0	41	35	10	0	0	0	0	stim011_stimuli_original_vehicles_boats_3.png	A	NaN	440.108730099979	1	439.916914900008	440.116913200007
418.262	0.2	504	14	1	4	0	1	4	0	0	0	stim002_stimuli_original_animals_birds_2.png	E	0	0	0	448.117144500022	448.3171401
418.662	0.2	505	14	1	4	1	8	15	0	0	0	stim009_stimuli_original_vehicles_boats_1.png	Y	0	0	0	448.517155800015	448.717138900014
419.062	0.2	506	14	1	4	2	15	11	0	0	0	stim016_stimuli_original_vehicles_planes_4.png	R	0	0	0	448.917166300002	449.11715960002
419.462	0.2	507	14	1	4	3	12	12	0	0	0	stim013_stimuli_original_vehicles_planes_1.png	T	0	0	0	449.317181200022	449.517176299996
419.862	0.2	508	14	1	4	4	4	1	0	0	0	stim005_stimuli_original_animals_fish_1.png	B	0	0	0	449.717176700011	449.917189900007
420.262	0.2	509	14	1	4	5	14	2	1	0	0	stim015_stimuli_original_vehicles_planes_3.png	C	0	0	0	450.117198000022	450.317203100014
420.662	0.2	510	14	1	4	6	10	8	0	0	0	stim011_stimuli_original_vehicles_boats_3.png	K	0	0	0	450.517207600002	450.717206600006
421.062	0.2	511	14	1	4	7	14	3	1	0	0	stim015_stimuli_original_vehicles_planes_3.png	D	0	0	0	450.917219499999	451.117219200009
421.462	0.2	512	14	1	4	8	13	4	0	1	0	stim014_stimuli_original_vehicles_planes_2.png	E	0	0	0	451.317229599983	451.517229799996
421.862	0.2	513	14	1	4	9	11	14	0	0	0	stim012_stimuli_original_vehicles_boats_4.png	V	0	0	0	451.717256799981	451.917239199975
422.262	0.2	514	14	1	4	10	9	4	0	1	1	stim010_stimuli_original_vehicles_boats_2.png	E	0	0	0	452.117251400021	452.317235299968
422.662	0.2	515	14	1	4	11	7	5	0	0	0	stim008_stimuli_original_animals_fish_4.png	F	NaN	452.709050400008	1	452.517262000008	452.717260900012
423.062	0.2	516	14	1	4	12	14	6	0	0	0	stim015_stimuli_original_vehicles_planes_3.png	G	0	0	0	452.917298200016	453.117275199969
423.462	0.2	517	14	1	4	13	0	9	0	0	0	stim001_stimuli_original_animals_birds_1.png	L	0	0	0	453.317281599971	453.517283099995
423.862	0.2	518	14	1	4	14	3	0	0	0	0	stim004_stimuli_original_animals_birds_4.png	A	0	0	0	453.717293399968	453.917285099975
424.262	0.2	519	14	1	4	15	5	10	0	0	0	stim006_stimuli_original_animals_fish_2.png	Q	0	0	0	454.11730480002	454.317315599998
424.662	0.2	520	14	1	4	16	6	13	0	0	0	stim007_stimuli_original_animals_fish_3.png	U	0	0	0	454.517314099998	454.717314700014
425.062	0.2	521	14	1	4	17	2	7	0	0	0	stim003_stimuli_original_animals_birds_3.png	J	0	0	0	454.917323499976	455.117322199978
425.462	0.2	522	14	1	4	18	7	2	0	0	0	stim008_stimuli_original_animals_fish_4.png	C	0	0	0	455.31733390002	455.517335399985
425.862	0.2	523	14	1	4	19	13	6	0	0	0	stim014_stimuli_original_vehicles_planes_2.png	G	NaN	455.909131199995	0	455.717345900019	455.917328300013
426.262	0.2	524	14	1	4	20	10	5	0	0	0	stim011_stimuli_original_vehicles_boats_3.png	F	0	0	0	456.117341200006	456.317342199967
426.662	0.2	525	14	1	4	21	0	3	0	0	0	stim001_stimuli_original_animals_birds_1.png	D	0	0	0	456.517349399976	456.71736499999
427.062	0.2	526	14	1	4	22	9	0	0	0	0	stim010_stimuli_original_vehicles_boats_2.png	A	0	0	0	456.917377599981	457.117376499984
427.462	0.2	527	14	1	4	23	6	14	0	0	0	stim007_stimuli_original_animals_fish_3.png	V	0	0	0	457.317399399995	457.517395099974
427.862	0.2	528	14	1	4	24	5	7	0	0	0	stim006_stimuli_original_animals_fish_2.png	J	0	0	0	457.717425299983	457.917398399964
428.262	0.2	529	14	1	4	25	4	9	1	0	0	stim005_stimuli_original_animals_fish_1.png	L	0	0	0	458.11741180002	458.317409800016
428.662	0.2	530	14	1	4	26	14	11	0	0	0	stim015_stimuli_original_vehicles_planes_3.png	R	0	0	0	458.517405199993	458.717406100011
429.062	0.2	531	14	1	4	27	4	13	1	0	0	stim005_stimuli_original_animals_fish_1.png	U	0	0	0	458.9174336	459.117405099969
429.462	0.2	532	14	1	4	28	3	14	0	1	0	stim004_stimuli_original_animals_birds_4.png	V	0	0	0	459.317441100022	459.517437000002
429.862	0.2	533	14	1	4	29	8	10	0	0	0	stim009_stimuli_original_vehicles_boats_1.png	Q	0	0	0	459.717435500002	459.917451000016
430.262	0.2	534	14	1	4	30	2	14	0	1	1	stim003_stimuli_original_animals_birds_3.png	V	0	0	0	460.117463500006	460.317458399979
430.662	0.2	535	14	1	4	31	1	4	0	0	0	stim002_stimuli_original_animals_birds_2.png	E	0	0	0	460.517471199972	460.717470099975
431.062	0.2	536	14	1	4	32	12	12	0	0	0	stim013_stimuli_original_vehicles_planes_1.png	T	0	0	0	460.917485999991	461.117466299969
431.462	0.2	537	14	1	4	33	11	15	0	0	0	stim012_stimuli_original_vehicles_boats_4.png	Y	0	0	0	461.317504199978	461.517497699999
431.863	0.2	538	14	1	4	34	15	8	0	0	0	stim016_stimuli_original_vehicles_planes_4.png	K	0	0	0	461.717520800012	461.91750370001
432.262	0.2	539	14	1	4	35	4	1	0	0	0	stim005_stimuli_original_animals_fish_1.png	B	0	0	0	462.117512699973	462.317497699987
443.296	0.2	540	15	0	16	0	12	14	0	0	0	stim013_stimuli_original_vehicles_planes_1.png	V	0	0	0	473.151116999972	473.351109999989
443.696	0.2	541	15	0	16	1	6	2	0	0	0	stim007_stimuli_original_animals_fish_3.png	C	0	0	0	473.551122199977	473.751119299966
444.096	0.2	542	15	0	16	2	8	0	0	0	0	stim009_stimuli_original_vehicles_boats_1.png	A	0	0	0	473.951130700007	474.151130600017
444.496	0.2	543	15	0	16	3	7	13	0	0	0	stim008_stimuli_original_animals_fish_4.png	U	0	0	0	474.3511421	474.55114180001
444.896	0.2	544	15	0	16	4	5	5	1	0	0	stim006_stimuli_original_animals_fish_2.png	F	0	0	0	474.751153499994	474.951158399985
445.296	0.2	545	15	0	16	5	1	15	0	0	0	stim002_stimuli_original_animals_birds_2.png	Y	0	0	0	475.151164199982	475.351162699983
445.696	0.2	546	15	0	16	6	5	1	1	0	1	stim006_stimuli_original_animals_fish_2.png	B	0	0	0	475.55117370002	475.751172899967
446.096	0.2	547	15	0	16	7	3	11	0	0	0	stim004_stimuli_original_animals_birds_4.png	R	0	0	0	475.951183600002	476.15118450002
446.496	0.2	548	15	0	16	8	14	10	0	0	0	stim015_stimuli_original_vehicles_planes_3.png	Q	0	0	0	476.35119299998	476.551195200009
446.896	0.2	549	15	0	16	9	10	8	0	0	0	stim011_stimuli_original_vehicles_boats_3.png	K	0	0	0	476.75121040002	476.951208300015
447.296	0.2	550	15	0	16	10	0	9	0	0	0	stim001_stimuli_original_animals_birds_1.png	L	0	0	0	477.15121500002	477.35121350002
447.696	0.2	551	15	0	16	11	4	11	0	1	0	stim005_stimuli_original_animals_fish_1.png	R	0	0	0	477.551225300005	477.751223900006
448.096	0.2	552	15	0	16	12	11	12	0	0	0	stim012_stimuli_original_vehicles_boats_4.png	T	0	0	0	477.951235999994	478.151236000005
448.496	0.2	553	15	0	16	13	5	11	0	1	0	stim006_stimuli_original_animals_fish_2.png	R	0	0	0	478.35124649998	478.551247199997
448.896	0.2	554	15	0	16	14	9	4	0	0	0	stim010_stimuli_original_vehicles_boats_2.png	E	0	0	0	478.751257599972	478.95125719998
449.296	0.2	555	15	0	16	15	2	3	0	0	0	stim003_stimuli_original_animals_birds_3.png	D	0	0	0	479.151268700021	479.351290499966
449.696	0.2	556	15	0	16	16	13	7	0	0	0	stim014_stimuli_original_vehicles_planes_2.png	J	0	0	0	479.551277699997	479.751276499999
450.096	0.2	557	15	0	16	17	15	6	0	0	0	stim016_stimuli_original_vehicles_planes_4.png	G	0	0	0	479.951293599966	480.151287399989
450.496	0.2	558	15	0	16	18	6	15	0	0	0	stim007_stimuli_original_animals_fish_3.png	Y	0	0	0	480.35129999998	480.551299599989
450.896	0.2	559	15	0	16	19	7	13	0	0	0	stim008_stimuli_original_animals_fish_4.png	U	0	0	0	480.751309100015	480.95130939997
451.296	0.2	560	15	0	16	20	3	2	0	0	0	stim004_stimuli_original_animals_birds_4.png	C	0	0	0	481.1513194	481.351319900015
451.696	0.2	561	15	0	16	21	4	9	0	0	0	stim005_stimuli_original_animals_fish_1.png	L	0	0	0	481.551329299982	481.751331500011
452.096	0.2	562	15	0	16	22	11	5	1	0	0	stim012_stimuli_original_vehicles_boats_4.png	F	0	0	0	481.95134129998	482.151352700021
452.496	0.2	563	15	0	16	23	12	11	0	0	0	stim013_stimuli_original_vehicles_planes_1.png	R	0	0	0	482.351352399972	482.551352099981
452.896	0.2	564	15	0	16	24	11	4	1	0	1	stim012_stimuli_original_vehicles_boats_4.png	E	0	0	0	482.751363599964	482.951363499975
453.296	0.2	565	15	0	16	25	9	0	0	0	0	stim010_stimuli_original_vehicles_boats_2.png	A	NaN	483.343169300002	1	483.151372799999	483.351373700018
453.696	0.2	566	15	0	16	26	8	10	0	0	0	stim009_stimuli_original_vehicles_boats_1.png	Q	0	0	0	483.551384199993	483.751386400021
454.096	0.2	567	15	0	16	27	10	14	0	0	0	stim011_stimuli_original_vehicles_boats_3.png	V	0	0	0	483.951394399977	484.151393799984
454.496	0.2	568	15	0	16	28	11	3	0	0	0	stim012_stimuli_original_vehicles_boats_4.png	D	0	0	0	484.351402600005	484.551404599973
454.896	0.2	569	15	0	16	29	1	5	0	1	0	stim002_stimuli_original_animals_birds_2.png	F	0	0	0	484.751415000006	484.951413600007
455.296	0.2	570	15	0	16	30	15	1	0	0	0	stim016_stimuli_original_vehicles_planes_4.png	B	0	0	0	485.151424899988	485.351425600005
455.696	0.2	571	15	0	16	31	5	5	0	1	0	stim006_stimuli_original_animals_fish_2.png	F	0	0	0	485.551439100003	485.751434699981
456.096	0.2	572	15	0	16	32	13	7	0	0	0	stim014_stimuli_original_vehicles_planes_2.png	J	0	0	0	485.951446799969	486.151446299977
456.496	0.2	573	15	0	16	33	0	8	0	0	0	stim001_stimuli_original_animals_birds_1.png	K	0	0	0	486.35145680001	486.551457799971
456.896	0.2	574	15	0	16	34	2	6	0	0	0	stim003_stimuli_original_animals_birds_3.png	G	0	0	0	486.751466499991	486.951466900005
457.296	0.2	575	15	0	16	35	14	12	0	0	0	stim015_stimuli_original_vehicles_planes_3.png	T	0	0	0	487.151477899984	487.351477899996
461.397	0.2	576	16	1	35	0	1	8	0	0	0	stim002_stimuli_original_animals_birds_2.png	K	0	0	0	491.251590900007	491.451586299983
461.797	0.2	577	16	1	35	1	6	3	0	0	0	stim007_stimuli_original_animals_fish_3.png	D	0	0	0	491.65160089999	491.851596599969
462.197	0.2	578	16	1	35	2	9	9	0	0	0	stim010_stimuli_original_vehicles_boats_2.png	L	0	0	0	492.051608000009	492.251607100014
462.597	0.2	579	16	1	35	3	3	11	0	0	0	stim004_stimuli_original_animals_birds_4.png	R	0	0	0	492.451637699967	492.651616999996
462.997	0.2	580	16	1	35	4	15	5	0	0	0	stim016_stimuli_original_vehicles_planes_4.png	F	0	0	0	492.851627699973	493.051635099982
463.397	0.2	581	16	1	35	5	12	1	0	0	0	stim013_stimuli_original_vehicles_planes_1.png	B	0	0	0	493.251639399969	493.451637699967
463.797	0.2	582	16	1	35	6	7	4	0	0	0	stim008_stimuli_original_animals_fish_4.png	E	0	0	0	493.651649200008	493.851653799997
464.197	0.2	583	16	1	35	7	14	0	0	0	0	stim015_stimuli_original_vehicles_planes_3.png	A	0	0	0	494.051663699967	494.251659500005
464.597	0.2	584	16	1	35	8	2	13	0	0	0	stim003_stimuli_original_animals_birds_3.png	U	0	0	0	494.451668799971	494.651673000015
464.997	0.2	585	16	1	35	9	5	2	0	1	0	stim006_stimuli_original_animals_fish_2.png	C	0	0	0	494.851681099972	495.051696999988
465.397	0.2	586	16	1	35	10	14	7	1	0	0	stim015_stimuli_original_vehicles_planes_3.png	J	0	0	0	495.251691500016	495.451689900015
465.797	0.2	587	16	1	35	11	11	2	0	1	1	stim012_stimuli_original_vehicles_boats_4.png	C	0	0	0	495.651709800004	495.851700800005
466.197	0.2	588	16	1	35	12	14	10	1	0	0	stim015_stimuli_original_vehicles_planes_3.png	Q	0	0	0	496.051714500005	496.251711299992
466.597	0.2	589	16	1	35	13	8	6	0	0	0	stim009_stimuli_original_vehicles_boats_1.png	G	NaN	496.444295699999	1	496.451725099992	496.651723799994
466.997	0.2	590	16	1	35	14	0	2	0	0	0	stim001_stimuli_original_animals_birds_1.png	C	0	0	0	496.8517689	497.051750199986
467.397	0.2	591	16	1	35	15	13	15	0	0	0	stim014_stimuli_original_vehicles_planes_2.png	Y	0	0	0	497.251785999979	497.451743200014
467.797	0.2	592	16	1	35	16	4	12	0	0	0	stim005_stimuli_original_animals_fish_1.png	T	0	0	0	497.651765200018	497.851781699981
468.197	0.2	593	16	1	35	17	10	14	0	0	0	stim011_stimuli_original_vehicles_boats_3.png	V	0	0	0	498.051770999969	498.251779599988
468.597	0.2	594	16	1	35	18	14	10	0	0	0	stim015_stimuli_original_vehicles_planes_3.png	Q	0	0	0	498.451790499967	498.651775599981
468.997	0.2	595	16	1	35	19	12	4	0	0	0	stim013_stimuli_original_vehicles_planes_1.png	E	0	0	0	498.851797299983	499.05180429999
469.397	0.2	596	16	1	35	20	15	13	0	0	0	stim016_stimuli_original_vehicles_planes_4.png	U	0	0	0	499.25180779997	499.451808999991
469.797	0.2	597	16	1	35	21	2	0	0	0	0	stim003_stimuli_original_animals_birds_3.png	A	NaN	499.843630200019	0	499.651822999993	499.85184800002
470.197	0.2	598	16	1	35	22	6	8	0	0	0	stim007_stimuli_original_animals_fish_3.png	K	0	0	0	500.051830900018	500.251831699978
470.597	0.2	599	16	1	35	23	10	14	0	1	0	stim011_stimuli_original_vehicles_boats_3.png	V	0	0	0	500.451870399993	500.651826700021
470.997	0.2	600	16	1	35	24	2	11	1	0	0	stim003_stimuli_original_animals_birds_3.png	R	0	0	0	500.851849699975	501.051837300009
471.397	0.2	601	16	1	35	25	7	14	0	1	1	stim008_stimuli_original_animals_fish_4.png	V	0	0	0	501.251864399994	501.451850200014
471.797	0.2	602	16	1	35	26	2	5	1	0	0	stim003_stimuli_original_animals_birds_3.png	F	0	0	0	501.65187110001	501.851872199972
472.197	0.2	603	16	1	35	27	13	2	0	0	0	stim014_stimuli_original_vehicles_planes_2.png	C	NaN	502.252099699981	1	502.051882700005	502.251891699969
472.597	0.2	604	16	1	35	28	0	14	0	0	0	stim001_stimuli_original_animals_birds_1.png	V	0	0	0	502.451905199967	502.651883199986
472.997	0.2	605	16	1	35	29	4	7	0	0	0	stim005_stimuli_original_animals_fish_1.png	J	0	0	0	502.851901999966	503.051897700003
473.397	0.2	606	16	1	35	30	1	12	0	0	0	stim002_stimuli_original_animals_birds_2.png	T	0	0	0	503.251914099965	503.45190320001
473.797	0.2	607	16	1	35	31	5	15	0	0	0	stim006_stimuli_original_animals_fish_2.png	Y	0	0	0	503.651925200014	503.851913399994
474.197	0.2	608	16	1	35	32	11	3	0	0	0	stim012_stimuli_original_vehicles_boats_4.png	D	0	0	0	504.051936400007	504.251932899992
474.597	0.2	609	16	1	35	33	9	9	0	0	0	stim010_stimuli_original_vehicles_boats_2.png	L	0	0	0	504.451943999971	504.65193459997
474.997	0.2	610	16	1	35	34	3	6	0	0	0	stim004_stimuli_original_animals_birds_4.png	G	0	0	0	504.851959899999	505.051967300009
475.397	0.2	611	16	1	35	35	8	1	0	0	0	stim009_stimuli_original_vehicles_boats_1.png	B	0	0	0	505.251983499969	505.45196570002
486.664	0.2	612	17	0	47	0	14	0	0	0	0	stim015_stimuli_original_vehicles_planes_3.png	A	0	0	0	516.518917599984	516.718913799967
487.064	0.2	613	17	0	47	1	6	15	0	0	0	stim007_stimuli_original_animals_fish_3.png	Y	0	0	0	516.918934400019	517.118925300019
487.464	0.2	614	17	0	47	2	9	4	0	0	0	stim010_stimuli_original_vehicles_boats_2.png	E	0	0	0	517.318936399999	517.518934799999
487.864	0.2	615	17	0	47	3	5	11	0	0	0	stim006_stimuli_original_animals_fish_2.png	R	0	0	0	517.718945499975	517.918946199992
488.264	0.2	616	17	0	47	4	10	3	0	0	0	stim011_stimuli_original_vehicles_boats_3.png	D	0	0	0	518.118959199986	518.318957599986
488.664	0.2	617	17	0	47	5	4	1	0	0	0	stim005_stimuli_original_animals_fish_1.png	B	0	0	0	518.519004100002	518.718966600019
489.064	0.2	618	17	0	47	6	7	8	0	0	0	stim008_stimuli_original_animals_fish_4.png	K	0	0	0	518.918983499985	519.118978400016
489.464	0.2	619	17	0	47	7	8	2	0	0	0	stim009_stimuli_original_vehicles_boats_1.png	C	0	0	0	519.318988299987	519.51899979997
489.864	0.2	620	17	0	47	8	1	13	0	0	0	stim002_stimuli_original_animals_birds_2.png	U	0	0	0	519.718999099976	519.918997999979
490.264	0.2	621	17	0	47	9	11	10	0	0	0	stim012_stimuli_original_vehicles_boats_4.png	Q	0	0	0	520.119009600021	520.319008899969
490.664	0.2	622	17	0	47	10	8	1	1	1	0	stim009_stimuli_original_vehicles_boats_1.png	B	0	0	0	520.519019900006	520.719023399986
491.064	0.2	623	17	0	47	11	13	5	0	0	0	stim014_stimuli_original_vehicles_planes_2.png	F	0	0	0	520.919033700018	521.119057199976
491.464	0.2	624	17	0	47	12	8	1	1	1	1	stim009_stimuli_original_vehicles_boats_1.png	B	0	0	0	521.319041899987	521.519040099985
491.864	0.2	625	17	0	47	13	0	12	0	0	0	stim001_stimuli_original_animals_birds_1.png	T	NaN	521.71165870002	1	521.719089200022	521.919058099971
492.264	0.2	626	17	0	47	14	15	7	0	0	0	stim016_stimuli_original_vehicles_planes_4.png	J	0	0	0	522.119061900012	522.31906140002
492.664	0.2	627	17	0	47	15	3	14	0	0	0	stim004_stimuli_original_animals_birds_4.png	V	0	0	0	522.519072299998	522.719073800021
493.064	0.2	628	17	0	47	16	12	6	0	0	0	stim013_stimuli_original_vehicles_planes_1.png	G	0	0	0	522.9190848	523.1190833
493.464	0.2	629	17	0	47	17	2	9	0	0	0	stim003_stimuli_original_animals_birds_3.png	L	0	0	0	523.319094799983	523.519093899988
493.864	0.2	630	17	0	47	18	9	2	0	0	0	stim010_stimuli_original_vehicles_boats_2.png	C	0	0	0	523.719121599977	523.919103599968
494.264	0.2	631	17	0	47	19	6	12	0	0	0	stim007_stimuli_original_animals_fish_3.png	T	0	0	0	524.119114700006	524.319118499989
494.664	0.2	632	17	0	47	20	14	3	0	0	0	stim015_stimuli_original_vehicles_planes_3.png	D	0	0	0	524.519123599981	524.719123499992
495.064	0.2	633	17	0	47	21	7	15	0	0	0	stim008_stimuli_original_animals_fish_4.png	Y	0	0	0	524.919135599979	525.119137100002
495.464	0.2	634	17	0	47	22	12	0	0	0	0	stim013_stimuli_original_vehicles_planes_1.png	A	0	0	0	525.319146799971	525.519144499965
495.864	0.2	635	17	0	47	23	1	8	1	1	0	stim002_stimuli_original_animals_birds_2.png	K	0	0	0	525.719156000006	525.919155500014
496.264	0.2	636	17	0	47	24	5	13	0	0	0	stim006_stimuli_original_animals_fish_2.png	U	0	0	0	526.119170699967	526.319171899988
496.664	0.2	637	17	0	47	25	1	8	1	1	1	stim002_stimuli_original_animals_birds_2.png	K	0	0	0	526.519177299982	526.719177099993
497.064	0.2	638	17	0	47	26	10	11	0	0	0	stim011_stimuli_original_vehicles_boats_3.png	R	0	0	0	526.919191499997	527.119188599987
497.464	0.2	639	17	0	47	27	13	1	0	0	0	stim014_stimuli_original_vehicles_planes_2.png	B	NaN	527.311763399979	1	527.319199599966	527.519201299991
497.864	0.2	640	17	0	47	28	2	8	0	0	0	stim003_stimuli_original_animals_birds_3.png	K	0	0	0	527.719210300012	527.919209000014
498.264	0.2	641	17	0	47	29	8	7	0	0	0	stim009_stimuli_original_vehicles_boats_1.png	J	0	0	0	528.119220199995	528.319221100013
498.664	0.2	642	17	0	47	30	1	4	0	0	0	stim002_stimuli_original_animals_birds_2.png	E	0	0	0	528.5192637	528.719229599985
499.064	0.2	643	17	0	47	31	3	10	0	0	0	stim004_stimuli_original_animals_birds_4.png	Q	0	0	0	528.919241299969	529.119257999992
499.464	0.2	644	17	0	47	32	11	5	0	0	0	stim012_stimuli_original_vehicles_boats_4.png	F	0	0	0	529.319255499984	529.519262699992
499.864	0.2	645	17	0	47	33	4	9	0	0	0	stim005_stimuli_original_animals_fish_1.png	L	0	0	0	529.719262300001	529.919262200012
500.264	0.2	646	17	0	47	34	15	6	0	0	0	stim016_stimuli_original_vehicles_planes_4.png	G	0	0	0	530.119272899989	530.319272399996
500.664	0.2	647	17	0	47	35	0	14	0	0	0	stim001_stimuli_original_animals_birds_1.png	V	0	0	0	530.519284099981	530.719283699989
506.298	0.2	648	18	1	36	0	7	15	0	0	0	stim008_stimuli_original_animals_fish_4.png	Y	0	0	0	536.152768499975	536.352771800011
506.698	0.2	649	18	1	36	1	14	11	0	0	0	stim015_stimuli_original_vehicles_planes_3.png	R	0	0	0	536.552778500016	536.752776100009
507.098	0.2	650	18	1	36	2	3	13	0	0	0	stim004_stimuli_original_animals_birds_4.png	U	0	0	0	536.952788199997	537.152787800005
507.498	0.2	651	18	1	36	3	9	1	0	0	0	stim010_stimuli_original_vehicles_boats_2.png	B	0	0	0	537.352800099994	537.552800400008
507.898	0.2	652	18	1	36	4	12	5	0	0	0	stim013_stimuli_original_vehicles_planes_1.png	F	0	0	0	537.752809399972	537.952824099979
508.298	0.2	653	18	1	36	5	2	0	0	0	0	stim003_stimuli_original_animals_birds_3.png	A	0	0	0	538.152820699965	538.352818400017
508.698	0.2	654	18	1	36	6	8	8	0	1	0	stim009_stimuli_original_vehicles_boats_1.png	K	0	0	0	538.552846000006	538.752830300014
509.098	0.2	655	18	1	36	7	4	12	0	0	0	stim005_stimuli_original_animals_fish_1.png	T	0	0	0	538.952839599981	539.1528406
509.498	0.2	656	18	1	36	8	1	8	0	1	1	stim002_stimuli_original_animals_birds_2.png	K	0	0	0	539.352853499993	539.55285019998
509.898	0.2	657	18	1	36	9	2	10	1	0	0	stim003_stimuli_original_animals_birds_3.png	Q	NaN	539.944655600004	1	539.752862899972	539.952862699982
510.298	0.2	658	18	1	36	10	6	2	0	0	0	stim007_stimuli_original_animals_fish_3.png	C	0	0	0	540.152896600019	540.352875899989
510.698	0.2	659	18	1	36	11	2	3	1	0	0	stim003_stimuli_original_animals_birds_3.png	D	0	0	0	540.552891800005	540.752881199995
511.098	0.2	660	18	1	36	12	11	9	0	0	0	stim012_stimuli_original_vehicles_boats_4.png	L	0	0	0	540.952893199981	541.152892999991
511.498	0.2	661	18	1	36	13	10	4	0	0	0	stim011_stimuli_original_vehicles_boats_3.png	E	0	0	0	541.35290389997	541.552905899996
511.898	0.2	662	18	1	36	14	0	14	0	0	0	stim001_stimuli_original_animals_birds_1.png	V	0	0	0	541.752914200013	541.952912600012
512.298	0.2	663	18	1	36	15	15	7	0	0	0	stim016_stimuli_original_vehicles_planes_4.png	J	0	0	0	542.152925100003	542.352926099964
512.698	0.2	664	18	1	36	16	5	8	0	0	0	stim006_stimuli_original_animals_fish_2.png	K	0	0	0	542.552935399988	542.752964799991
513.098	0.2	665	18	1	36	17	13	6	0	0	0	stim014_stimuli_original_vehicles_planes_2.png	G	0	0	0	542.952944799967	543.15294629999
513.498	0.2	666	18	1	36	18	6	13	0	0	0	stim007_stimuli_original_animals_fish_3.png	U	0	0	0	543.352972999972	543.552958899993
513.898	0.2	667	18	1	36	19	8	5	0	0	0	stim009_stimuli_original_vehicles_boats_1.png	F	0	0	0	543.752965599997	543.952965100005
514.298	0.2	668	18	1	36	20	7	15	0	0	0	stim008_stimuli_original_animals_fish_4.png	Y	0	0	0	544.152977399994	544.352976800001
514.698	0.2	669	18	1	36	21	14	0	0	0	0	stim015_stimuli_original_vehicles_planes_3.png	A	0	0	0	544.552986199968	544.752989200002
515.098	0.2	670	18	1	36	22	4	10	0	0	0	stim005_stimuli_original_animals_fish_1.png	Q	0	0	0	544.953000399983	545.152997399971
515.498	0.2	671	18	1	36	23	9	11	0	0	0	stim010_stimuli_original_vehicles_boats_2.png	R	0	0	0	545.353037499997	545.55300710001
515.898	0.2	672	18	1	36	24	3	2	0	1	0	stim004_stimuli_original_animals_birds_4.png	C	0	0	0	545.753023699974	545.953031599987
516.298	0.2	673	18	1	36	25	2	6	0	0	0	stim003_stimuli_original_animals_birds_3.png	G	0	0	0	546.153032900009	546.353034099971
516.698	0.2	674	18	1	36	26	10	2	0	1	1	stim011_stimuli_original_vehicles_boats_3.png	C	0	0	0	546.553040699975	546.753040999989
517.098	0.2	675	18	1	36	27	8	1	1	0	0	stim009_stimuli_original_vehicles_boats_1.png	B	NaN	546.945605400018	1	546.95305359998	547.153050299967
517.498	0.2	676	18	1	36	28	12	4	0	0	0	stim013_stimuli_original_vehicles_planes_1.png	E	0	0	0	547.353061500005	547.553061100014
517.898	0.2	677	18	1	36	29	8	8	1	0	0	stim009_stimuli_original_vehicles_boats_1.png	K	0	0	0	547.753071099985	547.953089300019
518.298	0.2	678	18	1	36	30	0	2	0	0	0	stim001_stimuli_original_animals_birds_1.png	C	0	0	0	548.153083599987	548.353080999979
518.698	0.2	679	18	1	36	31	5	12	0	0	0	stim006_stimuli_original_animals_fish_2.png	T	0	0	0	548.553106300009	548.753092999978
519.098	0.2	680	18	1	36	32	1	9	0	0	0	stim002_stimuli_original_animals_birds_2.png	L	0	0	0	548.953105099965	549.153104499972
519.498	0.2	681	18	1	36	33	13	3	0	0	0	stim014_stimuli_original_vehicles_planes_2.png	D	0	0	0	549.353114800004	549.553112299996
519.898	0.2	682	18	1	36	34	11	14	0	0	0	stim012_stimuli_original_vehicles_boats_4.png	V	0	0	0	549.753130399971	549.953123799991
520.298	0.2	683	18	1	36	35	15	7	0	0	0	stim016_stimuli_original_vehicles_planes_4.png	J	0	0	0	550.153147500008	550.353137900005
527.281	0.2	684	19	0	18	0	4	5	0	0	0	stim005_stimuli_original_animals_fish_1.png	F	0	0	0	557.136656399991	557.336651499965
527.681	0.2	685	19	0	18	1	2	6	0	0	0	stim003_stimuli_original_animals_birds_3.png	G	0	0	0	557.536663400009	557.73668490001
528.081	0.2	686	19	0	18	2	3	8	0	0	0	stim004_stimuli_original_animals_birds_4.png	K	0	0	0	557.936672599986	558.13668310002
528.481	0.2	687	19	0	18	3	1	0	0	0	0	stim002_stimuli_original_animals_birds_2.png	A	0	0	0	558.336684499984	558.536688099965
528.881	0.2	688	19	0	18	4	15	14	0	0	0	stim016_stimuli_original_vehicles_planes_4.png	V	0	0	0	558.736692900013	558.936694499978
529.282	0.2	689	19	0	18	5	9	15	0	0	0	stim010_stimuli_original_vehicles_boats_2.png	Y	0	0	0	559.136705400015	559.336704400019
529.682	0.2	690	19	0	18	6	8	4	0	0	0	stim009_stimuli_original_vehicles_boats_1.png	E	0	0	0	559.536716700008	559.736735699989
530.082	0.2	691	19	0	18	7	10	12	0	0	0	stim011_stimuli_original_vehicles_boats_3.png	T	0	0	0	559.936725099979	560.136723999982
530.482	0.2	692	19	0	18	8	4	7	1	0	0	stim005_stimuli_original_animals_fish_1.png	J	0	0	0	560.336757200013	560.536735499976
530.882	0.2	693	19	0	18	9	6	1	0	0	0	stim007_stimuli_original_animals_fish_3.png	B	0	0	0	560.736747999967	560.936746199965
531.282	0.2	694	19	0	18	10	4	13	1	0	1	stim005_stimuli_original_animals_fish_1.png	U	0	0	0	561.136759999965	561.33675909997
531.682	0.2	695	19	0	18	11	7	11	0	0	0	stim008_stimuli_original_animals_fish_4.png	R	NaN	561.728563699988	1	561.536767699989	561.736767299997
532.082	0.2	696	19	0	18	12	13	7	0	1	0	stim014_stimuli_original_vehicles_planes_2.png	J	0	0	0	561.93678009999	562.136777999985
532.482	0.2	697	19	0	18	13	11	10	0	0	0	stim012_stimuli_original_vehicles_boats_4.png	Q	0	0	0	562.336802100006	562.536789399979
532.882	0.2	698	19	0	18	14	5	7	0	1	0	stim006_stimuli_original_animals_fish_2.png	J	0	0	0	562.736800700019	562.936798200011
533.282	0.2	699	19	0	18	15	0	3	0	0	0	stim001_stimuli_original_animals_birds_1.png	D	0	0	0	563.136809699994	563.336811300018
533.682	0.2	700	19	0	18	16	12	9	0	0	0	stim013_stimuli_original_vehicles_planes_1.png	L	0	0	0	563.536820199981	563.736820999999
534.082	0.2	701	19	0	18	17	14	2	0	0	0	stim015_stimuli_original_vehicles_planes_3.png	C	0	0	0	563.936829100014	564.136830599979
534.482	0.2	702	19	0	18	18	2	14	0	0	0	stim003_stimuli_original_animals_birds_3.png	V	0	0	0	564.336846399994	564.536881099979
534.882	0.2	703	19	0	18	19	9	12	0	0	0	stim010_stimuli_original_vehicles_boats_2.png	T	0	0	0	564.736853300012	564.936850800004
535.282	0.2	704	19	0	18	20	3	0	0	0	0	stim004_stimuli_original_animals_birds_4.png	A	0	0	0	565.136862399988	565.336864000012
535.682	0.2	705	19	0	18	21	7	5	1	0	0	stim008_stimuli_original_animals_fish_4.png	F	0	0	0	565.536874799989	565.736877500021
536.082	0.2	706	19	0	18	22	10	11	0	0	0	stim011_stimuli_original_vehicles_boats_3.png	R	0	0	0	565.936885999981	566.136885299988
536.482	0.2	707	19	0	18	23	7	13	1	0	1	stim008_stimuli_original_animals_fish_4.png	U	0	0	0	566.336893400003	566.536893900018
536.882	0.2	708	19	0	18	24	11	7	0	0	0	stim012_stimuli_original_vehicles_boats_4.png	J	NaN	566.928722899989	1	566.736905900005	566.93690500001
537.282	0.2	709	19	0	18	25	13	4	0	1	0	stim014_stimuli_original_vehicles_planes_2.png	E	0	0	0	567.13694539998	567.336915499996
537.682	0.2	710	19	0	18	26	1	6	0	0	0	stim002_stimuli_original_animals_birds_2.png	G	0	0	0	567.536925699969	567.736939099967
538.082	0.2	711	19	0	18	27	7	4	0	1	0	stim008_stimuli_original_animals_fish_4.png	E	0	0	0	567.936936400016	568.136941200006
538.482	0.2	712	19	0	18	28	12	10	0	0	0	stim013_stimuli_original_vehicles_planes_1.png	Q	0	0	0	568.336946800002	568.536950699985
538.882	0.2	713	19	0	18	29	4	8	0	0	0	stim005_stimuli_original_animals_fish_1.png	K	0	0	0	568.736956399982	568.93695599999
539.282	0.2	714	19	0	18	30	15	9	0	0	0	stim016_stimuli_original_vehicles_planes_4.png	L	0	0	0	569.136966799968	569.336966699979
539.682	0.2	715	19	0	18	31	14	15	0	0	0	stim015_stimuli_original_vehicles_planes_3.png	Y	0	0	0	569.536977000011	569.736994799983
540.082	0.2	716	19	0	18	32	0	1	0	0	0	stim001_stimuli_original_animals_birds_1.png	B	0	0	0	569.936987599998	570.137001399999
540.482	0.2	717	19	0	18	33	8	3	0	0	0	stim009_stimuli_original_vehicles_boats_1.png	D	0	0	0	570.337024000008	570.536998700001
540.882	0.2	718	19	0	18	34	6	2	0	0	0	stim007_stimuli_original_animals_fish_3.png	C	0	0	0	570.73700839997	570.937011700007
541.282	0.2	719	19	0	18	35	5	4	0	0	0	stim006_stimuli_original_animals_fish_2.png	E	0	0	0	571.137020399969	571.337019799976
550.165	0.2	720	20	1	37	0	12	6	0	0	0	stim013_stimuli_original_vehicles_planes_1.png	G	0	0	0	580.020587200008	580.220584499999
550.565	0.2	721	20	1	37	1	3	11	0	0	0	stim004_stimuli_original_animals_birds_4.png	R	0	0	0	580.42059579998	580.620597900008
550.965	0.2	722	20	1	37	2	8	14	0	0	0	stim009_stimuli_original_vehicles_boats_1.png	V	0	0	0	580.820606399968	581.020609900006
551.365	0.2	723	20	1	37	3	0	10	0	0	0	stim001_stimuli_original_animals_birds_1.png	Q	0	0	0	581.220648500021	581.420645300008
551.765	0.2	724	20	1	37	4	13	3	0	0	0	stim014_stimuli_original_vehicles_planes_2.png	D	0	0	0	581.620666300005	581.820654799987
552.165	0.2	725	20	1	37	5	10	13	0	0	0	stim011_stimuli_original_vehicles_boats_3.png	U	0	0	0	582.020667699981	582.220665299974
552.565	0.2	726	20	1	37	6	15	4	0	0	0	stim016_stimuli_original_vehicles_planes_4.png	E	0	0	0	582.420675400004	582.62067590002
552.965	0.2	727	20	1	37	7	14	7	0	0	0	stim015_stimuli_original_vehicles_planes_3.png	J	0	0	0	582.820687300002	583.020680200018
553.365	0.2	728	20	1	37	8	5	2	0	0	0	stim006_stimuli_original_animals_fish_2.png	C	0	0	0	583.220674699987	583.420696899993
553.765	0.2	729	20	1	37	9	13	13	1	1	0	stim014_stimuli_original_vehicles_planes_2.png	U	0	0	0	583.620717999991	583.82070599997
554.165	0.2	730	20	1	37	10	9	8	0	0	0	stim010_stimuli_original_vehicles_boats_2.png	K	0	0	0	584.020717800013	584.220721599995
554.565	0.2	731	20	1	37	11	13	13	1	1	1	stim014_stimuli_original_vehicles_planes_2.png	U	0	0	0	584.420734799991	584.620732099982
554.965	0.2	732	20	1	37	12	1	1	0	0	0	stim002_stimuli_original_animals_birds_2.png	B	NaN	585.012547699967	1	584.820741200005	585.020738599997
555.365	0.2	733	20	1	37	13	11	5	0	0	0	stim012_stimuli_original_vehicles_boats_4.png	F	0	0	0	585.220755899965	585.420747699973
555.765	0.2	734	20	1	37	14	7	9	0	0	0	stim008_stimuli_original_animals_fish_4.png	L	0	0	0	585.620745499968	585.820746599988
556.166	0.2	735	20	1	37	15	4	15	0	0	0	stim005_stimuli_original_animals_fish_1.png	Y	0	0	0	586.020774899982	586.220770000014
556.566	0.2	736	20	1	37	16	6	12	0	0	0	stim007_stimuli_original_animals_fish_3.png	T	0	0	0	586.420769300021	586.620780600002
556.966	0.2	737	20	1	37	17	2	0	0	0	0	stim003_stimuli_original_animals_birds_3.png	A	0	0	0	586.820807799988	587.02079390001
557.366	0.2	738	20	1	37	18	0	2	0	0	0	stim001_stimuli_original_animals_birds_1.png	C	0	0	0	587.220804199984	587.420801899978
557.766	0.2	739	20	1	37	19	12	6	0	0	0	stim013_stimuli_original_vehicles_planes_1.png	G	0	0	0	587.620812400011	587.820811700018
558.166	0.2	740	20	1	37	20	15	4	0	0	0	stim016_stimuli_original_vehicles_planes_4.png	E	0	0	0	588.020822799997	588.220827099984
558.566	0.2	741	20	1	37	21	9	7	0	0	0	stim010_stimuli_original_vehicles_boats_2.png	J	0	0	0	588.42084929999	588.620821000019
558.966	0.2	742	20	1	37	22	5	11	0	0	0	stim006_stimuli_original_animals_fish_2.png	R	0	0	0	588.82084890001	589.020830399997
559.366	0.2	743	20	1	37	23	1	1	0	0	0	stim002_stimuli_original_animals_birds_2.png	B	0	0	0	589.220856699976	589.420854099968
559.766	0.2	744	20	1	37	24	13	13	1	1	0	stim014_stimuli_original_vehicles_planes_2.png	U	0	0	0	589.62086570001	589.820865899965
560.166	0.2	745	20	1	37	25	8	9	0	0	0	stim009_stimuli_original_vehicles_boats_1.png	L	0	0	0	590.020876900002	590.220875300001
560.566	0.2	746	20	1	37	26	13	13	1	1	1	stim014_stimuli_original_vehicles_planes_2.png	U	0	0	0	590.420869799971	590.620876399975
560.966	0.2	747	20	1	37	27	2	5	0	0	0	stim003_stimuli_original_animals_birds_3.png	F	NaN	591.012685099966	1	590.820898299979	591.020919499977
561.366	0.2	748	20	1	37	28	7	14	0	0	0	stim008_stimuli_original_animals_fish_4.png	V	0	0	0	591.220912399993	591.420892399969
561.766	0.2	749	20	1	37	29	4	15	0	0	0	stim005_stimuli_original_animals_fish_1.png	Y	0	0	0	591.620920700021	591.82092009997
562.166	0.2	750	20	1	37	30	13	10	0	0	0	stim014_stimuli_original_vehicles_planes_2.png	Q	0	0	0	592.020928599988	592.220912599994
562.566	0.2	751	20	1	37	31	3	13	0	0	0	stim004_stimuli_original_animals_birds_4.png	U	0	0	0	592.420938799973	592.620942000009
562.966	0.2	752	20	1	37	32	10	0	0	0	0	stim011_stimuli_original_vehicles_boats_3.png	A	0	0	0	592.820953999995	593.020948899968
563.366	0.2	753	20	1	37	33	14	8	0	0	0	stim015_stimuli_original_vehicles_planes_3.png	K	0	0	0	593.220957999991	593.420962299977
563.766	0.2	754	20	1	37	34	11	3	0	0	0	stim012_stimuli_original_vehicles_boats_4.png	D	0	0	0	593.620971099997	593.820969699998
564.166	0.2	755	20	1	37	35	6	12	0	0	0	stim007_stimuli_original_animals_fish_3.png	T	0	0	0	594.020980799978	594.220971699979
574.416	0.2	756	21	0	2	0	0	3	0	0	0	stim001_stimuli_original_animals_birds_1.png	D	0	0	0	604.271258099994	604.471254899981
574.816	0.2	757	21	0	2	1	12	0	0	0	0	stim013_stimuli_original_vehicles_planes_1.png	A	0	0	0	604.67126719997	604.871264999965
575.216	0.2	758	21	0	2	2	3	15	0	0	0	stim004_stimuli_original_animals_birds_4.png	Y	0	0	0	605.071276100003	605.271276500018
575.616	0.2	759	21	0	2	3	6	7	0	0	0	stim007_stimuli_original_animals_fish_3.png	J	0	0	0	605.471289100009	605.671290299972
576.016	0.2	760	21	0	2	4	1	11	0	0	0	stim002_stimuli_original_animals_birds_2.png	R	0	0	0	605.871300400002	606.071300300013
576.416	0.2	761	21	0	2	5	4	10	0	0	0	stim005_stimuli_original_animals_fish_1.png	Q	0	0	0	606.271306200011	606.471312500013
576.816	0.2	762	21	0	2	6	8	6	0	0	0	stim009_stimuli_original_vehicles_boats_1.png	G	0	0	0	606.671307099983	606.871320199978
577.216	0.2	763	21	0	2	7	11	1	0	1	0	stim012_stimuli_original_vehicles_boats_4.png	B	0	0	0	607.071330800012	607.271328700008
577.616	0.2	764	21	0	2	8	4	9	1	0	0	stim005_stimuli_original_animals_fish_1.png	L	0	0	0	607.471340999997	607.671338799992
578.016	0.2	765	21	0	2	9	9	1	0	1	0	stim010_stimuli_original_vehicles_boats_2.png	B	NaN	608.063142700004	0	607.871336499986	608.071350099985
578.416	0.2	766	21	0	2	10	4	2	1	0	1	stim005_stimuli_original_animals_fish_1.png	C	0	0	0	608.271361199964	608.471365900012
578.816	0.2	767	21	0	2	11	15	13	0	0	0	stim016_stimuli_original_vehicles_planes_4.png	U	0	0	0	608.671369499993	608.87137389998
579.216	0.2	768	21	0	2	12	5	14	0	0	0	stim006_stimuli_original_animals_fish_2.png	V	NaN	609.063956899976	1	609.071380499983	609.271380599996
579.616	0.2	769	21	0	2	13	14	5	0	0	0	stim015_stimuli_original_vehicles_planes_3.png	F	0	0	0	609.471392599982	609.67139209999
580.016	0.2	770	21	0	2	14	2	12	0	0	0	stim003_stimuli_original_animals_birds_3.png	T	0	0	0	609.871403699974	610.071404599992
580.416	0.2	771	21	0	2	15	7	8	0	0	0	stim008_stimuli_original_animals_fish_4.png	K	0	0	0	610.271397700009	610.471415699983
580.816	0.2	772	21	0	2	16	13	1	0	0	0	stim014_stimuli_original_vehicles_planes_2.png	B	0	0	0	610.671423499996	610.871427799982
581.216	0.2	773	21	0	2	17	10	4	0	0	0	stim011_stimuli_original_vehicles_boats_3.png	E	0	0	0	611.071430900018	611.271432899986
581.616	0.2	774	21	0	2	18	4	10	0	0	0	stim005_stimuli_original_animals_fish_1.png	Q	0	0	0	611.471458800021	611.671445499989
582.016	0.2	775	21	0	2	19	1	13	0	0	0	stim002_stimuli_original_animals_birds_2.png	U	0	0	0	611.871458899986	612.071461300016
582.416	0.2	776	21	0	2	20	8	7	0	0	0	stim009_stimuli_original_vehicles_boats_1.png	J	0	0	0	612.271464399993	612.471465800016
582.816	0.2	777	21	0	2	21	12	2	0	0	0	stim013_stimuli_original_vehicles_planes_1.png	C	0	0	0	612.671477800002	612.871459699993
583.216	0.2	778	21	0	2	22	5	14	0	0	0	stim006_stimuli_original_animals_fish_2.png	V	0	0	0	613.071486399975	613.271486199985
583.616	0.2	779	21	0	2	23	14	5	0	0	0	stim015_stimuli_original_vehicles_planes_3.png	F	0	0	0	613.471498099971	613.671473099967
584.016	0.2	780	21	0	2	24	13	15	0	0	0	stim014_stimuli_original_vehicles_planes_2.png	Y	0	0	0	613.871508200013	614.071523899969
584.416	0.2	781	21	0	2	25	2	4	0	1	0	stim003_stimuli_original_animals_birds_3.png	E	0	0	0	614.271503299999	614.471516599995
584.816	0.2	782	21	0	2	26	1	9	1	0	0	stim002_stimuli_original_animals_birds_2.png	L	0	0	0	614.671529299987	614.871534899983
585.216	0.2	783	21	0	2	27	9	4	0	1	0	stim010_stimuli_original_vehicles_boats_2.png	E	0	0	0	615.071539899975	615.271538699977
585.616	0.2	784	21	0	2	28	1	11	1	0	1	stim002_stimuli_original_animals_birds_2.png	R	0	0	0	615.471535599965	615.671548300015
586.016	0.2	785	21	0	2	29	6	8	0	0	0	stim007_stimuli_original_animals_fish_3.png	K	0	0	0	615.871564099973	616.071559100004
586.416	0.2	786	21	0	2	30	10	4	0	0	0	stim011_stimuli_original_vehicles_boats_3.png	E	NaN	616.264131499978	1	616.271574100014	616.471574599971
586.816	0.2	787	21	0	2	31	11	1	0	0	0	stim012_stimuli_original_vehicles_boats_4.png	B	0	0	0	616.671580699971	616.871578799968
587.216	0.2	788	21	0	2	32	7	6	0	0	0	stim008_stimuli_original_animals_fish_4.png	G	0	0	0	617.071595999994	617.271590999968
587.616	0.2	789	21	0	2	33	15	3	0	0	0	stim016_stimuli_original_vehicles_planes_4.png	D	0	0	0	617.471604299964	617.671601600014
588.016	0.2	790	21	0	2	34	0	12	0	0	0	stim001_stimuli_original_animals_birds_1.png	T	0	0	0	617.871611999988	618.071612700005
588.416	0.2	791	21	0	2	35	3	0	0	0	0	stim004_stimuli_original_animals_birds_4.png	A	0	0	0	618.271626000002	618.471628599975
597.383	0.2	792	22	1	23	0	4	5	0	0	0	stim005_stimuli_original_animals_fish_1.png	F	0	0	0	627.238508899987	627.438504300022
597.783	0.2	793	22	1	23	1	1	1	0	0	0	stim002_stimuli_original_animals_birds_2.png	B	0	0	0	627.638518299966	627.838528699998
598.183	0.2	794	22	1	23	2	8	15	0	0	0	stim009_stimuli_original_vehicles_boats_1.png	Y	0	0	0	628.038528900011	628.238527300011
598.583	0.2	795	22	1	23	3	2	6	0	0	0	stim003_stimuli_original_animals_birds_3.png	G	0	0	0	628.438536599977	628.638537099992
598.983	0.2	796	22	1	23	4	7	13	0	0	0	stim008_stimuli_original_animals_fish_4.png	U	0	0	0	628.838573199988	629.038547199976
599.383	0.2	797	22	1	23	5	0	3	0	0	0	stim001_stimuli_original_animals_birds_1.png	D	0	0	0	629.238562599989	629.438547500002
599.783	0.2	798	22	1	23	6	11	9	0	0	0	stim012_stimuli_original_vehicles_boats_4.png	L	0	0	0	629.638569900009	629.838558999996
600.183	0.2	799	22	1	23	7	9	10	0	1	0	stim010_stimuli_original_vehicles_boats_2.png	Q	0	0	0	630.038581000001	630.23858070001
