onset	duration	eventnumber	sequencenumber	condition	streamnumber	stimnumber	objectstimnumber	letterstimnumber	objecttarget	lettertarget	is2back	objectstim	letterstim	response	rt	correct	time_stimon	time_stimoff
22569	100	0	0	0	19	0	4	10	0	0	0	stim005_stimuli_original_animals_fish_1.png	Q	0	0	0	106.808574799914	107.008956299862
22669	100	1	0	0	19	1	10	1	0	0	0	stim011_stimuli_original_vehicles_boats_3.png	B	0	0	0	107.208565599984	107.408550499938
22769	100	2	0	0	19	2	6	14	0	0	0	stim007_stimuli_original_animals_fish_3.png	V	0	0	0	107.608574699843	107.808574199909
22869	100	3	0	0	19	3	1	3	0	0	0	stim002_stimuli_original_animals_birds_2.png	D	0	0	0	108.008588699857	108.208584100008
22969	100	4	0	0	19	4	13	15	0	0	0	stim014_stimuli_original_vehicles_planes_2.png	Y	0	0	0	108.408611799823	108.608597500017
23069	100	5	0	0	19	5	0	12	0	0	0	stim001_stimuli_original_animals_birds_1.png	T	0	0	0	108.808618099894	109.008631699951
23169	100	6	0	0	19	6	7	0	0	0	0	stim008_stimuli_original_animals_fish_4.png	A	0	0	0	109.208616900025	109.408615799854
23269	100	7	0	0	19	7	9	9	1	0	0	stim010_stimuli_original_vehicles_boats_2.png	L	0	0	0	109.608632099815	109.808635599911
23369	100	8	0	0	19	8	12	6	0	0	0	stim013_stimuli_original_vehicles_planes_1.png	G	0	0	0	110.008641799912	110.208636599826
23469	100	9	0	0	19	9	9	12	1	1	1	stim010_stimuli_original_vehicles_boats_2.png	T	0	0	0	110.408648499986	110.608662499813
23569	100	10	0	0	19	10	14	8	0	0	0	stim015_stimuli_original_vehicles_planes_3.png	K	0	0	0	110.808659799863	111.008685899898
23669	100	11	0	0	19	11	5	12	0	1	0	stim006_stimuli_original_animals_fish_2.png	T	0	0	0	111.208669699961	111.408668899909
23769	100	12	0	0	19	12	8	11	0	0	0	stim009_stimuli_original_vehicles_boats_1.png	R	d	111.800488299923	1	111.608696299838	111.808686099946
23869	100	13	0	0	19	13	2	2	0	0	0	stim003_stimuli_original_animals_birds_3.png	C	0	0	0	112.008690999821	112.208689199993
23969	100	14	0	0	19	14	9	5	0	0	0	stim010_stimuli_original_vehicles_boats_2.png	F	0	0	0	112.40899139992	112.608707799809
24069	100	15	0	0	19	15	3	7	0	0	0	stim004_stimuli_original_animals_birds_4.png	J	0	0	0	112.808713899925	113.00871059997
24169	100	16	0	0	19	16	11	13	0	0	0	stim012_stimuli_original_vehicles_boats_4.png	U	0	0	0	113.208709799917	113.408712399891
24269	100	17	0	0	19	17	15	4	0	0	0	stim016_stimuli_original_vehicles_planes_4.png	E	0	0	0	113.608747699996	113.808734699851
24369	100	18	0	0	19	18	4	15	0	0	0	stim005_stimuli_original_animals_fish_1.png	Y	0	0	0	114.008746099891	114.208751800004
24469	100	19	0	0	19	19	13	11	0	0	0	stim014_stimuli_original_vehicles_planes_2.png	R	0	0	0	114.408755099867	114.608761499869
24569	100	20	0	0	19	20	7	3	0	0	0	stim008_stimuli_original_animals_fish_4.png	D	0	0	0	114.808767299866	115.008765299805
24669	100	21	0	0	19	21	5	9	0	0	0	stim006_stimuli_original_animals_fish_2.png	L	0	0	0	115.208770399913	115.408766199835
24769	100	22	0	0	19	22	2	2	0	0	0	stim003_stimuli_original_animals_birds_3.png	C	0	0	0	115.608801399823	115.808797699865
24869	100	23	0	0	19	23	11	8	0	0	0	stim012_stimuli_original_vehicles_boats_4.png	K	0	0	0	116.008798599942	116.208799900021
24969	100	24	0	0	19	24	12	5	1	0	0	stim013_stimuli_original_vehicles_planes_1.png	F	0	0	0	116.408824899932	116.6088093
25069	100	25	0	0	19	25	8	14	0	0	0	stim009_stimuli_original_vehicles_boats_1.png	V	0	0	0	116.808820399921	117.008821999887
25169	100	26	0	0	19	26	12	9	1	1	1	stim013_stimuli_original_vehicles_planes_1.png	L	0	0	0	117.208830500022	117.408829699969
25269	100	27	0	0	19	27	6	12	0	0	0	stim007_stimuli_original_animals_fish_3.png	T	0	0	0	117.608844399918	117.808840099955
25369	100	28	0	0	19	28	9	9	0	1	0	stim010_stimuli_original_vehicles_boats_2.png	L	d	118.200645799981	1	118.008850499988	118.208852999844
25469	100	29	0	0	19	29	0	7	0	0	0	stim001_stimuli_original_animals_birds_1.png	J	0	0	0	118.408848899882	118.608867299976
25569	100	30	0	0	19	30	12	0	0	0	0	stim013_stimuli_original_vehicles_planes_1.png	A	0	0	0	118.808873799862	119.008891999954
25669	100	31	0	0	19	31	15	13	0	0	0	stim016_stimuli_original_vehicles_planes_4.png	U	0	0	0	119.208882399835	119.408884899924
25769	100	32	0	0	19	32	3	1	0	0	0	stim004_stimuli_original_animals_birds_4.png	B	0	0	0	119.608896699967	119.808916999958
25869	100	33	0	0	19	33	14	6	0	0	0	stim015_stimuli_original_vehicles_planes_3.png	G	0	0	0	120.008904799819	120.208925399929
25969	100	34	0	0	19	34	1	10	0	0	0	stim002_stimuli_original_animals_birds_2.png	Q	0	0	0	120.408915899927	120.608916800003
26069	100	35	0	0	19	35	10	4	0	0	0	stim011_stimuli_original_vehicles_boats_3.png	E	0	0	0	120.808926099911	121.008954099845
27394	100	36	1	1	39	0	5	10	0	0	0	stim006_stimuli_original_animals_fish_2.png	Q	0	0	0	126.10906139994	126.309065099806
27494	100	37	1	1	39	1	2	9	0	0	0	stim003_stimuli_original_animals_birds_3.png	L	0	0	0	126.509083400015	126.709069999866
27594	100	38	1	1	39	2	14	14	0	0	0	stim015_stimuli_original_vehicles_planes_3.png	V	0	0	0	126.909082599916	127.109077399829
27694	100	39	1	1	39	3	10	15	0	0	0	stim011_stimuli_original_vehicles_boats_3.png	Y	0	0	0	127.309091100004	127.509104699828
27794	100	40	1	1	39	4	3	5	0	0	0	stim004_stimuli_original_animals_birds_4.png	F	0	0	0	127.709100999869	127.909100399818
27894	100	41	1	1	39	5	11	12	0	0	0	stim012_stimuli_original_vehicles_boats_4.png	T	0	0	0	128.109112799866	128.309121900005
27994	100	42	1	1	39	6	6	2	0	0	0	stim007_stimuli_original_animals_fish_3.png	C	0	0	0	128.509192900034	128.709150600014
28094	100	43	1	1	39	7	13	8	0	0	0	stim014_stimuli_original_vehicles_planes_2.png	K	0	0	0	128.90915219998	129.109145399882
28194	100	44	1	1	39	8	15	3	0	1	0	stim016_stimuli_original_vehicles_planes_4.png	D	0	0	0	129.309152199887	129.509161300026
28294	100	45	1	1	39	9	2	7	1	0	0	stim003_stimuli_original_animals_birds_3.png	J	0	0	0	129.709149499889	129.909163199831
28394	100	46	1	1	39	10	4	3	0	1	1	stim005_stimuli_original_animals_fish_1.png	D	0	0	0	130.109170199838	130.309169600019
28494	100	47	1	1	39	11	2	4	1	0	0	stim003_stimuli_original_animals_birds_3.png	E	0	0	0	130.509214799851	130.709174299845
28594	100	48	1	1	39	12	0	0	0	0	0	stim001_stimuli_original_animals_birds_1.png	A	0	0	0	130.909182999982	131.109181799926
28694	100	49	1	1	39	13	1	11	0	0	0	stim002_stimuli_original_animals_birds_2.png	R	0	0	0	131.309194099857	131.509195099818
28794	100	50	1	1	39	14	9	3	0	0	0	stim010_stimuli_original_vehicles_boats_2.png	D	0	0	0	131.70920719998	131.909209699836
28894	100	51	1	1	39	15	12	13	0	0	0	stim013_stimuli_original_vehicles_planes_1.png	U	0	0	0	132.109213199932	132.309212999884
28994	100	52	1	1	39	16	8	1	0	0	0	stim009_stimuli_original_vehicles_boats_1.png	B	0	0	0	132.509231099859	132.709226599894
29094	100	53	1	1	39	17	7	6	0	0	0	stim008_stimuli_original_animals_fish_4.png	G	0	0	0	132.909238499822	133.109265199862
29194	100	54	1	1	39	18	6	7	0	0	0	stim007_stimuli_original_animals_fish_3.png	J	0	0	0	133.309249199927	133.50926309987
29294	100	55	1	1	39	19	1	8	0	0	0	stim002_stimuli_original_animals_birds_2.png	K	0	0	0	133.709264699835	133.909258399857
29394	100	56	1	1	39	20	13	12	0	0	0	stim014_stimuli_original_vehicles_planes_2.png	T	0	0	0	134.1092701999	134.309269299963
29494	100	57	1	1	39	21	3	9	0	0	0	stim004_stimuli_original_animals_birds_4.png	L	0	0	0	134.509295499884	134.70928059984
29594	100	58	1	1	39	22	11	1	0	0	0	stim012_stimuli_original_vehicles_boats_4.png	B	0	0	0	134.909291399876	135.109290799825
29694	100	59	1	1	39	23	0	0	0	0	0	stim001_stimuli_original_animals_birds_1.png	A	0	0	0	135.309300099965	135.509315699805
29794	100	60	1	1	39	24	4	2	0	1	0	stim005_stimuli_original_animals_fish_1.png	C	0	0	0	135.70932509983	135.90930900001
29894	100	61	1	1	39	25	3	4	1	0	0	stim004_stimuli_original_animals_birds_4.png	E	0	0	0	136.109321199823	136.309339100029
29994	100	62	1	1	39	26	7	2	0	1	1	stim008_stimuli_original_animals_fish_4.png	C	0	0	0	136.509334399831	136.709332400002
30094	100	63	1	1	39	27	3	15	1	0	0	stim004_stimuli_original_animals_birds_4.png	Y	0	0	0	136.909344599815	137.109345000004
30194	100	64	1	1	39	28	8	13	0	0	0	stim009_stimuli_original_vehicles_boats_1.png	U	d	137.301918799989	1	137.309354200028	137.509359400021
30294	100	65	1	1	39	29	2	6	0	0	0	stim003_stimuli_original_animals_birds_3.png	G	0	0	0	137.709369099932	137.909364699852
30394	100	66	1	1	39	30	12	11	0	0	0	stim013_stimuli_original_vehicles_planes_1.png	R	0	0	0	138.109377699904	138.309385799803
30494	100	67	1	1	39	31	5	3	0	0	0	stim006_stimuli_original_animals_fish_2.png	D	0	0	0	138.50939120003	138.709389299853
30594	100	68	1	1	39	32	15	10	0	0	0	stim016_stimuli_original_vehicles_planes_4.png	Q	0	0	0	138.909404799808	139.109399599954
30694	100	69	1	1	39	33	14	14	0	0	0	stim015_stimuli_original_vehicles_planes_3.png	V	0	0	0	139.309409699868	139.509423499927
30794	100	70	1	1	39	34	9	2	0	0	0	stim010_stimuli_original_vehicles_boats_2.png	C	0	0	0	139.709423599998	139.909420999931
30894	100	71	1	1	39	35	10	5	0	0	0	stim011_stimuli_original_vehicles_boats_3.png	F	0	0	0	140.10943219997	140.309432099806
31731.75	100	72	2	0	33	0	10	2	0	0	0	stim011_stimuli_original_vehicles_boats_3.png	C	0	0	0	143.459524099948	143.659526599804
31831.75	100	73	2	0	33	1	13	15	0	0	0	stim014_stimuli_original_vehicles_planes_2.png	Y	0	0	0	143.859532399802	144.059532699874
31931.75	100	74	2	0	33	2	4	10	0	0	0	stim005_stimuli_original_animals_fish_1.png	Q	0	0	0	144.259544999804	144.459542299854
32031.75	100	75	2	0	33	3	8	14	0	0	0	stim009_stimuli_original_vehicles_boats_1.png	V	0	0	0	144.659556000028	144.859556499869
32131.75	100	76	2	0	33	4	14	11	0	0	0	stim015_stimuli_original_vehicles_planes_3.png	R	0	0	0	145.059563099872	145.259564899839
32231.75	100	77	2	0	33	5	1	7	0	0	0	stim002_stimuli_original_animals_birds_2.png	J	0	0	0	145.459574899869	145.659589399816
32331.75	100	78	2	0	33	6	9	1	0	0	0	stim010_stimuli_original_vehicles_boats_2.png	B	0	0	0	145.859600599855	146.059597400017
32431.75	100	79	2	0	33	7	5	12	0	0	0	stim006_stimuli_original_animals_fish_2.png	T	0	0	0	146.25960819982	146.459606999997
32531.75	100	80	2	0	33	8	6	6	0	0	0	stim007_stimuli_original_animals_fish_3.png	G	0	0	0	146.65962179983	146.859609699808
32631.75	100	81	2	0	33	9	7	11	0	1	0	stim008_stimuli_original_animals_fish_4.png	R	0	0	0	147.059620699845	147.259619399905
32731.75	100	82	2	0	33	10	10	8	1	0	0	stim011_stimuli_original_vehicles_boats_3.png	K	d	147.651426899945	0	147.459628699813	147.659632100025
32831.75	100	83	2	0	33	11	3	11	0	1	0	stim004_stimuli_original_animals_birds_4.png	R	0	0	0	147.859624099918	148.059639799874
32931.75	100	84	2	0	33	12	10	4	1	0	1	stim011_stimuli_original_vehicles_boats_3.png	E	0	0	0	148.259649300016	148.459649799857
33031.75	100	85	2	0	33	13	11	0	0	0	0	stim012_stimuli_original_vehicles_boats_4.png	A	0	0	0	148.659666099818	148.859662599862
33131.75	100	86	2	0	33	14	15	9	0	0	0	stim016_stimuli_original_vehicles_planes_4.png	L	0	0	0	149.059677099809	149.259671199834
33231.75	100	87	2	0	33	15	0	13	0	0	0	stim001_stimuli_original_animals_birds_1.png	U	0	0	0	149.459682899993	149.659685899969
33331.75	100	88	2	0	33	16	12	3	0	0	0	stim013_stimuli_original_vehicles_planes_1.png	D	0	0	0	149.859694899991	150.059695599834
33431.75	100	89	2	0	33	17	2	5	0	0	0	stim003_stimuli_original_animals_birds_3.png	F	0	0	0	150.259702099953	150.459703799803
33531.75	100	90	2	0	33	18	5	2	0	0	0	stim006_stimuli_original_animals_fish_2.png	C	0	0	0	150.659716799855	150.859715400031
33631.75	100	91	2	0	33	19	3	12	0	0	0	stim004_stimuli_original_animals_birds_4.png	T	0	0	0	151.059728799853	151.259724899894
33731.75	100	92	2	0	33	20	13	0	0	0	0	stim014_stimuli_original_vehicles_planes_2.png	A	0	0	0	151.459736699937	151.659751199884
33831.75	100	93	2	0	33	21	9	15	0	0	0	stim010_stimuli_original_vehicles_boats_2.png	Y	0	0	0	151.859756299993	152.059759999858
33931.75	100	94	2	0	33	22	0	11	0	0	0	stim001_stimuli_original_animals_birds_1.png	R	0	0	0	152.259769900003	152.459768299945
34031.75	100	95	2	0	33	23	4	10	0	1	0	stim005_stimuli_original_animals_fish_1.png	Q	0	0	0	152.65978519991	152.859779599821
34131.75	100	96	2	0	33	24	11	3	1	0	0	stim012_stimuli_original_vehicles_boats_4.png	D	0	0	0	153.05978819984	153.259791799821
34231.75	100	97	2	0	33	25	8	10	0	1	0	stim009_stimuli_original_vehicles_boats_1.png	Q	0	0	0	153.459800699959	153.65980519983
34331.75	100	98	2	0	33	26	11	7	1	0	1	stim012_stimuli_original_vehicles_boats_4.png	J	0	0	0	153.859800899867	154.05980089982
34431.75	100	99	2	0	33	27	6	6	0	0	0	stim007_stimuli_original_animals_fish_3.png	G	0	0	0	154.259810999967	154.459811199922
34531.75	100	100	2	0	33	28	12	5	0	0	0	stim013_stimuli_original_vehicles_planes_1.png	F	0	0	0	154.659822999965	154.859822199913
34631.75	100	101	2	0	33	29	1	9	0	0	0	stim002_stimuli_original_animals_birds_2.png	L	0	0	0	155.059833299834	155.259832399897
34731.75	100	102	2	0	33	30	7	1	0	0	0	stim008_stimuli_original_animals_fish_4.png	B	0	0	0	155.459855200024	155.659856899874
34831.75	100	103	2	0	33	31	11	14	0	0	0	stim012_stimuli_original_vehicles_boats_4.png	V	0	0	0	155.85986560001	156.059864899842
34931.75	100	104	2	0	33	32	14	8	0	0	0	stim015_stimuli_original_vehicles_planes_3.png	K	0	0	0	156.259877000004	156.459875199944
35031.75	100	105	2	0	33	33	10	4	0	0	0	stim011_stimuli_original_vehicles_boats_3.png	E	d	156.851684699999	0	156.659889000002	156.859887199942
35131.75	100	106	2	0	33	34	15	13	0	0	0	stim016_stimuli_original_vehicles_planes_4.png	U	0	0	0	157.059900399996	157.259898099815
35231.75	100	107	2	0	33	35	2	10	0	0	0	stim003_stimuli_original_animals_birds_3.png	Q	0	0	0	157.459909899859	157.659908699803
36006.75	100	108	3	1	44	0	10	10	0	0	0	stim011_stimuli_original_vehicles_boats_3.png	Q	0	0	0	160.560007999884	160.760004199808
36106.75	100	109	3	1	44	1	5	6	0	0	0	stim006_stimuli_original_animals_fish_2.png	G	0	0	0	160.960013399832	161.160020699957
36206.75	100	110	3	1	44	2	4	8	0	0	0	stim005_stimuli_original_animals_fish_1.png	K	0	0	0	161.360043099849	161.560027999803
36306.75	100	111	3	1	44	3	2	13	0	0	0	stim003_stimuli_original_animals_birds_3.png	U	0	0	0	161.760035999818	161.960053599905
36406.75	100	112	3	1	44	4	7	4	0	0	0	stim008_stimuli_original_animals_fish_4.png	E	0	0	0	162.160048299935	162.360047099879
36506.75	100	113	3	1	44	5	1	12	0	0	0	stim002_stimuli_original_animals_birds_2.png	T	0	0	0	162.560060199816	162.760057499865
36606.75	100	114	3	1	44	6	14	7	0	0	0	stim015_stimuli_original_vehicles_planes_3.png	J	0	0	0	162.960072799819	163.160065399949
36706.75	100	115	3	1	44	7	6	15	0	0	0	stim007_stimuli_original_animals_fish_3.png	Y	0	0	0	163.360078699887	163.560078399954
36806.75	100	116	3	1	44	8	7	3	1	0	0	stim008_stimuli_original_animals_fish_4.png	D	0	0	0	163.760088899871	163.960089199943
36906.75	100	117	3	1	44	9	3	2	0	1	0	stim004_stimuli_original_animals_birds_4.png	C	0	0	0	164.160102899885	164.360087299952
37006.75	100	118	3	1	44	10	7	5	1	0	0	stim008_stimuli_original_animals_fish_4.png	F	0	0	0	164.560123399831	164.760119999992
37106.75	100	119	3	1	44	11	9	2	0	1	1	stim010_stimuli_original_vehicles_boats_2.png	C	0	0	0	164.960128800012	165.160124299815
37206.75	100	120	3	1	44	12	12	0	0	0	0	stim013_stimuli_original_vehicles_planes_1.png	A	d	165.367722800002	1	165.360133499838	165.560125399847
37306.75	100	121	3	1	44	13	11	11	0	0	0	stim012_stimuli_original_vehicles_boats_4.png	R	0	0	0	165.760129199829	165.960131999804
37406.75	100	122	3	1	44	14	15	2	0	0	0	stim016_stimuli_original_vehicles_planes_4.png	C	0	0	0	166.160129799973	166.360128199914
37506.75	100	123	3	1	44	15	8	9	0	0	0	stim009_stimuli_original_vehicles_boats_1.png	L	0	0	0	166.56018179981	166.760152099887
37606.75	100	124	3	1	44	16	0	1	0	0	0	stim001_stimuli_original_animals_birds_1.png	B	0	0	0	166.960169399856	167.160164299887
37706.75	100	125	3	1	44	17	13	14	0	0	0	stim014_stimuli_original_vehicles_planes_2.png	V	0	0	0	167.360167599982	167.560165100032
37806.75	100	126	3	1	44	18	14	13	0	0	0	stim015_stimuli_original_vehicles_planes_3.png	U	0	0	0	167.76017299993	167.960171899991
37906.75	100	127	3	1	44	19	1	0	0	0	0	stim002_stimuli_original_animals_birds_2.png	A	0	0	0	168.160187399946	168.360183199868
38006.75	100	128	3	1	44	20	9	8	0	0	0	stim010_stimuli_original_vehicles_boats_2.png	K	0	0	0	168.560208099894	168.760215299902
38106.75	100	129	3	1	44	21	2	15	0	0	0	stim003_stimuli_original_animals_birds_3.png	Y	0	0	0	168.960218099877	169.160219499841
38206.75	100	130	3	1	44	22	11	11	0	0	0	stim012_stimuli_original_vehicles_boats_4.png	R	0	0	0	169.3602159	169.560229199938
38306.75	100	131	3	1	44	23	0	12	0	0	0	stim001_stimuli_original_animals_birds_1.png	T	0	0	0	169.760242699878	169.960237599909
38406.75	100	132	3	1	44	24	2	9	1	0	0	stim003_stimuli_original_animals_birds_3.png	L	0	0	0	170.160235599848	170.360235699918
38506.75	100	133	3	1	44	25	5	7	0	1	0	stim006_stimuli_original_animals_fish_2.png	J	0	0	0	170.560261399951	170.760258499999
38606.75	100	134	3	1	44	26	2	3	1	0	0	stim003_stimuli_original_animals_birds_3.png	D	0	0	0	170.960270699812	171.160259200027
38706.75	100	135	3	1	44	27	3	7	0	1	1	stim004_stimuli_original_animals_birds_4.png	J	0	0	0	171.360291199991	171.560282599879
38806.75	100	136	3	1	44	28	15	6	0	0	0	stim016_stimuli_original_vehicles_planes_4.png	G	0	0	0	171.760291199898	171.960308699869
38906.75	100	137	3	1	44	29	7	14	0	0	0	stim008_stimuli_original_animals_fish_4.png	V	0	0	0	172.16029319982	172.36030369997
39006.75	100	138	3	1	44	30	12	1	0	0	0	stim013_stimuli_original_vehicles_planes_1.png	B	0	0	0	172.560318499804	172.76031189994
39106.75	100	139	3	1	44	31	4	7	0	0	0	stim005_stimuli_original_animals_fish_1.png	J	0	0	0	172.960323199863	173.160311199958
39206.75	100	140	3	1	44	32	13	2	0	0	0	stim014_stimuli_original_vehicles_planes_2.png	C	0	0	0	173.360322099878	173.560336299939
39306.75	100	141	3	1	44	33	8	4	0	0	0	stim009_stimuli_original_vehicles_boats_1.png	E	0	0	0	173.760347199859	173.960373600014
39406.75	100	142	3	1	44	34	6	5	0	0	0	stim007_stimuli_original_animals_fish_3.png	F	0	0	0	174.160343299853	174.360343799926
39506.75	100	143	3	1	44	35	10	10	0	0	0	stim011_stimuli_original_vehicles_boats_3.png	Q	0	0	0	174.560384299839	174.76035779994
40452.75	100	144	4	0	13	0	7	1	0	0	0	stim008_stimuli_original_animals_fish_4.png	B	0	0	0	178.343800399918	178.543794699945
40552.75	100	145	4	0	13	1	1	0	0	0	0	stim002_stimuli_original_animals_birds_2.png	A	0	0	0	178.743802199839	178.943800600013
40652.75	100	146	4	0	13	2	13	4	0	0	0	stim014_stimuli_original_vehicles_planes_2.png	E	0	0	0	179.143810899928	179.343810099876
40752.75	100	147	4	0	13	3	5	3	0	0	0	stim006_stimuli_original_animals_fish_2.png	D	0	0	0	179.543825299945	179.743821799988
40852.75	100	148	4	0	13	4	3	9	0	0	0	stim004_stimuli_original_animals_birds_4.png	L	0	0	0	179.94386959984	180.14383299998
40952.75	100	149	4	0	13	5	2	14	0	0	0	stim003_stimuli_original_animals_birds_3.png	V	0	0	0	180.343841899885	180.543843699852
41052.75	100	150	4	0	13	6	5	6	1	0	0	stim006_stimuli_original_animals_fish_2.png	G	0	0	0	180.743855800014	180.943866699934
41152.75	100	151	4	0	13	7	9	2	0	0	0	stim010_stimuli_original_vehicles_boats_2.png	C	d	181.33565100003	0	181.143863299862	181.343869799981
41252.75	100	152	4	0	13	8	5	11	1	0	1	stim006_stimuli_original_animals_fish_2.png	R	0	0	0	181.543881299905	181.743874299806
41352.75	100	153	4	0	13	9	10	12	0	0	0	stim011_stimuli_original_vehicles_boats_3.png	T	0	0	0	181.943885699846	182.143886499805
41452.75	100	154	4	0	13	10	8	9	0	1	0	stim009_stimuli_original_vehicles_boats_1.png	L	0	0	0	182.343895699829	182.543926199898
41552.75	100	155	4	0	13	11	4	10	0	0	0	stim005_stimuli_original_animals_fish_1.png	Q	0	0	0	182.743909199955	182.943935499992
41652.75	100	156	4	0	13	12	15	9	0	1	0	stim016_stimuli_original_vehicles_planes_4.png	L	0	0	0	183.143916899804	183.343918599887
41752.75	100	157	4	0	13	13	6	8	0	0	0	stim007_stimuli_original_animals_fish_3.png	K	0	0	0	183.543955599889	183.743939299835
41852.75	100	158	4	0	13	14	14	15	0	0	0	stim015_stimuli_original_vehicles_planes_3.png	Y	0	0	0	183.943953800015	184.143952599959
41952.75	100	159	4	0	13	15	11	13	0	0	0	stim012_stimuli_original_vehicles_boats_4.png	U	0	0	0	184.343960399972	184.54396359995
42052.75	100	160	4	0	13	16	0	5	0	0	0	stim001_stimuli_original_animals_birds_1.png	F	0	0	0	184.743973699864	184.943972899811
42152.75	100	161	4	0	13	17	12	7	0	0	0	stim013_stimuli_original_vehicles_planes_1.png	J	0	0	0	185.143984399969	185.343982500024
42252.75	100	162	4	0	13	18	7	12	0	0	0	stim008_stimuli_original_animals_fish_4.png	T	0	0	0	185.544008699944	185.743992300006
42352.75	100	163	4	0	13	19	5	0	0	0	0	stim006_stimuli_original_animals_fish_2.png	A	0	0	0	185.944006199948	186.144015099853
42452.75	100	164	4	0	13	20	13	11	0	0	0	stim014_stimuli_original_vehicles_planes_2.png	R	0	0	0	186.344017199939	186.54401870002
42552.75	100	165	4	0	13	21	15	14	0	0	0	stim016_stimuli_original_vehicles_planes_4.png	V	0	0	0	186.744026899803	186.944026999874
42652.75	100	166	4	0	13	22	8	6	0	0	0	stim009_stimuli_original_vehicles_boats_1.png	G	d	187.136633999879	0	187.144036900019	187.344036599854
42752.75	100	167	4	0	13	23	9	15	1	0	0	stim010_stimuli_original_vehicles_boats_2.png	Y	0	0	0	187.544050300028	187.744075999828
42852.75	100	168	4	0	13	24	10	4	0	0	0	stim011_stimuli_original_vehicles_boats_3.png	E	0	0	0	187.944056499982	188.144060299965
42952.75	100	169	4	0	13	25	9	8	1	0	1	stim010_stimuli_original_vehicles_boats_2.png	K	0	0	0	188.344095799839	188.544073099969
43052.75	100	170	4	0	13	26	12	10	0	0	0	stim013_stimuli_original_vehicles_planes_1.png	Q	0	0	0	188.744077899959	188.94408099982
43152.75	100	171	4	0	13	27	11	5	0	1	0	stim012_stimuli_original_vehicles_boats_4.png	F	0	0	0	189.144092799863	189.344089299906
43252.75	100	172	4	0	13	28	2	9	0	0	0	stim003_stimuli_original_animals_birds_3.png	L	0	0	0	189.544103299966	189.744105599821
43352.75	100	173	4	0	13	29	6	5	0	1	0	stim007_stimuli_original_animals_fish_3.png	F	0	0	0	189.944111399818	190.144112099893
43452.75	100	174	4	0	13	30	14	2	0	0	0	stim015_stimuli_original_vehicles_planes_3.png	C	0	0	0	190.344151800033	190.544124299893
43552.75	100	175	4	0	13	31	9	3	0	0	0	stim010_stimuli_original_vehicles_boats_2.png	D	0	0	0	190.744132899912	190.944153399905
43652.75	100	176	4	0	13	32	3	5	0	0	0	stim004_stimuli_original_animals_birds_4.png	F	0	0	0	191.144143800018	191.344142399961
43752.75	100	177	4	0	13	33	4	13	0	0	0	stim005_stimuli_original_animals_fish_1.png	U	0	0	0	191.544156800024	191.744158799993
43852.75	100	178	4	0	13	34	0	1	0	0	0	stim001_stimuli_original_animals_birds_1.png	B	0	0	0	191.944167400012	192.144166599959
43952.75	100	179	4	0	13	35	1	7	0	0	0	stim002_stimuli_original_animals_birds_2.png	J	0	0	0	192.344178099884	192.544178199954
44986.25	100	180	5	1	35	0	13	6	0	0	0	stim014_stimuli_original_vehicles_planes_2.png	G	0	0	0	196.477610099828	196.677617999958
45086.25	100	181	5	1	35	1	0	1	0	0	0	stim001_stimuli_original_animals_birds_1.png	B	0	0	0	196.877631899901	197.077629999956
45186.25	100	182	5	1	35	2	1	3	0	0	0	stim002_stimuli_original_animals_birds_2.png	D	0	0	0	197.277639899869	197.477639299817
45286.25	100	183	5	1	35	3	11	11	0	0	0	stim012_stimuli_original_vehicles_boats_4.png	R	0	0	0	197.677674699808	197.877649799921
45386.25	100	184	5	1	35	4	4	12	0	0	0	stim005_stimuli_original_animals_fish_1.png	T	0	0	0	198.077661999967	198.277659700019
45486.25	100	185	5	1	35	5	12	0	0	0	0	stim013_stimuli_original_vehicles_planes_1.png	A	0	0	0	198.47767719999	198.677671999903
45586.25	100	186	5	1	35	6	7	14	0	0	0	stim008_stimuli_original_animals_fish_4.png	V	0	0	0	198.877671799855	199.077670999803
45686.25	100	187	5	1	35	7	3	8	0	0	0	stim004_stimuli_original_animals_birds_4.png	K	0	0	0	199.277680899948	199.477681800025
45786.25	100	188	5	1	35	8	15	2	0	0	0	stim016_stimuli_original_vehicles_planes_4.png	C	0	0	0	199.677705599926	199.877694600029
45886.25	100	189	5	1	35	9	7	13	1	0	0	stim008_stimuli_original_animals_fish_4.png	U	0	0	0	200.077703599818	200.277728299843
45986.25	100	190	5	1	35	10	9	9	0	0	0	stim010_stimuli_original_vehicles_boats_2.png	L	0	0	0	200.477716099937	200.677729099989
46086.25	100	191	5	1	35	11	7	12	1	1	0	stim008_stimuli_original_animals_fish_4.png	T	0	0	0	200.877743799938	201.077726599993
46186.25	100	192	5	1	35	12	8	5	0	0	0	stim009_stimuli_original_vehicles_boats_1.png	F	0	0	0	201.277738699922	201.477734399959
46286.25	100	193	5	1	35	13	10	12	0	1	1	stim011_stimuli_original_vehicles_boats_3.png	T	0	0	0	201.677760899998	201.877746399958
46386.25	100	194	5	1	35	14	6	15	0	0	0	stim007_stimuli_original_animals_fish_3.png	Y	d	202.269547499949	1	202.077756399987	202.277757199947
46486.25	100	195	5	1	35	15	5	7	0	0	0	stim006_stimuli_original_animals_fish_2.png	J	0	0	0	202.477772099897	202.677780499915
46586.25	100	196	5	1	35	16	14	4	0	0	0	stim015_stimuli_original_vehicles_planes_3.png	E	0	0	0	202.877791199833	203.077778899809
46686.25	100	197	5	1	35	17	2	10	0	0	0	stim003_stimuli_original_animals_birds_3.png	Q	0	0	0	203.277788599953	203.477790599922
46786.25	100	198	5	1	35	18	10	2	0	0	0	stim011_stimuli_original_vehicles_boats_3.png	C	0	0	0	203.677812499925	203.877799399896
46886.25	100	199	5	1	35	19	4	14	0	0	0	stim005_stimuli_original_animals_fish_1.png	V	0	0	0	204.077811499825	204.277809799882
46986.25	100	200	5	1	35	20	7	5	0	0	0	stim008_stimuli_original_animals_fish_4.png	F	0	0	0	204.477821899811	204.677833399968
47086.25	100	201	5	1	35	21	15	6	0	0	0	stim016_stimuli_original_vehicles_planes_4.png	G	0	0	0	204.877832599916	205.077873399947
47186.25	100	202	5	1	35	22	12	10	1	0	0	stim013_stimuli_original_vehicles_planes_1.png	Q	0	0	0	205.277843700023	205.477843399858
47286.25	100	203	5	1	35	23	5	8	0	0	0	stim006_stimuli_original_animals_fish_2.png	K	d	205.670451299986	0	205.677866399987	205.877852099948
47386.25	100	204	5	1	35	24	12	7	1	1	0	stim013_stimuli_original_vehicles_planes_1.png	J	d	206.070436500013	0	206.077865900006	206.27786419983
47486.25	100	205	5	1	35	25	9	9	0	0	0	stim010_stimuli_original_vehicles_boats_2.png	L	0	0	0	206.477875499986	206.677876299946
47586.25	100	206	5	1	35	26	13	7	0	1	1	stim014_stimuli_original_vehicles_planes_2.png	J	0	0	0	206.87788639986	207.077884299913
47686.25	100	207	5	1	35	27	2	15	0	0	0	stim003_stimuli_original_animals_birds_3.png	Y	0	0	0	207.277898199856	207.47789660003
47786.25	100	208	5	1	35	28	8	3	0	0	0	stim009_stimuli_original_vehicles_boats_1.png	D	d	207.869735299842	1	207.677941299975	207.87790880003
47886.25	100	209	5	1	35	29	14	7	0	0	0	stim015_stimuli_original_vehicles_planes_3.png	J	0	0	0	208.077917199815	208.27793319989
47986.25	100	210	5	1	35	30	0	12	0	0	0	stim001_stimuli_original_animals_birds_1.png	T	0	0	0	208.477928099921	208.67794539989
48086.25	100	211	5	1	35	31	12	4	0	0	0	stim013_stimuli_original_vehicles_planes_1.png	E	0	0	0	208.877937099896	209.077938999981
48186.25	100	212	5	1	35	32	11	11	0	0	0	stim012_stimuli_original_vehicles_boats_4.png	R	0	0	0	209.277951000025	209.47795119998
48286.25	100	213	5	1	35	33	3	1	0	0	0	stim004_stimuli_original_animals_birds_4.png	B	0	0	0	209.677987199975	209.877964199986
48386.25	100	214	5	1	35	34	1	0	0	0	0	stim002_stimuli_original_animals_birds_2.png	A	0	0	0	210.077970599988	210.277989799855
48486.25	100	215	5	1	35	35	6	13	0	0	0	stim007_stimuli_original_animals_fish_3.png	U	0	0	0	210.477980999975	210.677994600032
51819.5	100	216	6	0	42	0	10	2	0	0	0	stim011_stimuli_original_vehicles_boats_3.png	C	0	0	0	223.811676000012	224.011709499871
51919.75	100	217	6	0	42	1	3	3	0	0	0	stim004_stimuli_original_animals_birds_4.png	D	0	0	0	224.211718499893	224.411723600002
52019.75	100	218	6	0	42	2	1	0	0	0	0	stim002_stimuli_original_animals_birds_2.png	A	0	0	0	224.611723799957	224.811721900012
52119.75	100	219	6	0	42	3	6	11	0	0	0	stim007_stimuli_original_animals_fish_3.png	R	0	0	0	225.011739299865	225.211730099982
52219.75	100	220	6	0	42	4	11	5	0	0	0	stim012_stimuli_original_vehicles_boats_4.png	F	0	0	0	225.411752999993	225.611743799876
52319.75	100	221	6	0	42	5	10	9	1	0	0	stim011_stimuli_original_vehicles_boats_3.png	L	0	0	0	225.811754300026	226.01176649984
52419.75	100	222	6	0	42	6	14	1	0	0	0	stim015_stimuli_original_vehicles_planes_3.png	B	0	0	0	226.211773999967	226.41176999989
52519.75	100	223	6	0	42	7	10	14	1	0	1	stim011_stimuli_original_vehicles_boats_3.png	V	0	0	0	226.611784799956	226.811781399883
52619.75	100	224	6	0	42	8	8	6	0	0	0	stim009_stimuli_original_vehicles_boats_1.png	G	0	0	0	227.011793699814	227.211787799839
52719.75	100	225	6	0	42	9	0	15	0	1	0	stim001_stimuli_original_animals_birds_1.png	Y	d	227.40433109994	1	227.411799499998	227.611798899947
52819.75	100	226	6	0	42	10	13	7	0	0	0	stim014_stimuli_original_vehicles_planes_2.png	J	0	0	0	227.811805799836	228.011812299956
52919.75	100	227	6	0	42	11	9	15	0	1	0	stim010_stimuli_original_vehicles_boats_2.png	Y	0	0	0	228.21182239987	228.411819099914
53019.75	100	228	6	0	42	12	4	12	0	0	0	stim005_stimuli_original_animals_fish_1.png	T	0	0	0	228.611830999842	228.811832599808
53119.75	100	229	6	0	42	13	15	13	0	0	0	stim016_stimuli_original_vehicles_planes_4.png	U	0	0	0	229.011840699939	229.211838699877
53219.75	100	230	6	0	42	14	7	15	0	0	0	stim008_stimuli_original_animals_fish_4.png	Y	0	0	0	229.411849299911	229.611850199988
53319.75	100	231	6	0	42	15	2	4	0	0	0	stim003_stimuli_original_animals_birds_3.png	E	0	0	0	229.811860899907	230.011864800006
53419.75	100	232	6	0	42	16	12	8	0	0	0	stim013_stimuli_original_vehicles_planes_1.png	K	0	0	0	230.211875299923	230.411874199985
53519.75	100	233	6	0	42	17	5	10	0	0	0	stim006_stimuli_original_animals_fish_2.png	Q	0	0	0	230.611887599807	230.811881799949
53619.75	100	234	6	0	42	18	10	5	0	0	0	stim011_stimuli_original_vehicles_boats_3.png	F	d	231.004483999917	0	231.011900899932	231.211881999858
53719.75	100	235	6	0	42	19	8	12	0	0	0	stim009_stimuli_original_vehicles_boats_1.png	T	0	0	0	231.411904499866	231.611907999963
53819.75	100	236	6	0	42	20	4	2	0	0	0	stim005_stimuli_original_animals_fish_1.png	C	0	0	0	231.811913699843	232.011921399971
53919.75	100	237	6	0	42	21	15	7	0	0	0	stim016_stimuli_original_vehicles_planes_4.png	J	0	0	0	232.211931099882	232.411928099813
54019.75	100	238	6	0	42	22	13	15	0	0	0	stim014_stimuli_original_vehicles_planes_2.png	Y	0	0	0	232.611945000011	232.811942699831
54119.75	100	239	6	0	42	23	12	4	0	0	0	stim013_stimuli_original_vehicles_planes_1.png	E	0	0	0	233.011955599999	233.211953899823
54219.75	100	240	6	0	42	24	15	9	1	0	0	stim016_stimuli_original_vehicles_planes_4.png	L	d	233.603766900022	0	233.411962999962	233.611967199948
54319.75	100	241	6	0	42	25	7	13	0	0	0	stim008_stimuli_original_animals_fish_4.png	U	0	0	0	233.811975699849	234.011974100024
54419.75	100	242	6	0	42	26	15	0	1	0	1	stim016_stimuli_original_vehicles_planes_4.png	A	0	0	0	234.21198669984	234.411985700019
54519.75	100	243	6	0	42	27	6	8	0	0	0	stim007_stimuli_original_animals_fish_3.png	K	0	0	0	234.611989900004	234.811991799856
54619.75	100	244	6	0	42	28	14	10	0	1	0	stim015_stimuli_original_vehicles_planes_3.png	Q	0	0	0	235.012009299826	235.212010199903
54719.75	100	245	6	0	42	29	1	14	0	0	0	stim002_stimuli_original_animals_birds_2.png	V	d	235.603810899891	1	235.411989999935	235.612009999808
54819.75	100	246	6	0	42	30	9	10	0	1	0	stim010_stimuli_original_vehicles_boats_2.png	Q	0	0	0	235.812009599991	236.011998499976
54919.75	100	247	6	0	42	31	5	11	0	0	0	stim006_stimuli_original_animals_fish_2.png	R	0	0	0	236.212017099839	236.412008399842
55019.75	100	248	6	0	42	32	11	6	0	0	0	stim012_stimuli_original_vehicles_boats_4.png	G	0	0	0	236.612023300026	236.81202559988
55119.75	100	249	6	0	42	33	0	1	0	0	0	stim001_stimuli_original_animals_birds_1.png	B	0	0	0	237.012028699974	237.212027299916
55219.75	100	250	6	0	42	34	3	3	0	0	0	stim004_stimuli_original_animals_birds_4.png	D	0	0	0	237.412053799955	237.612043099944
55319.75	100	251	6	0	42	35	2	10	0	0	0	stim003_stimuli_original_animals_birds_3.png	Q	0	0	0	237.812050699955	238.012053299928
58740.75	100	252	7	1	19	0	4	10	0	0	0	stim005_stimuli_original_animals_fish_1.png	Q	0	0	0	251.495768300025	251.695767799858
58840.75	100	253	7	1	19	1	10	1	0	0	0	stim011_stimuli_original_vehicles_boats_3.png	B	0	0	0	251.89578999998	252.095771800028
58940.75	100	254	7	1	19	2	6	14	0	0	0	stim007_stimuli_original_animals_fish_3.png	V	0	0	0	252.295786599861	252.495788999833
59040.75	100	255	7	1	19	3	1	3	0	0	0	stim002_stimuli_original_animals_birds_2.png	D	0	0	0	252.695794899948	252.895794800017
59140.75	100	256	7	1	19	4	13	15	0	0	0	stim014_stimuli_original_vehicles_planes_2.png	Y	0	0	0	253.095806299942	253.295807899907
59240.75	100	257	7	1	19	5	0	12	0	0	0	stim001_stimuli_original_animals_birds_1.png	T	0	0	0	253.495822199853	253.695816199994
59340.75	100	258	7	1	19	6	7	0	0	0	0	stim008_stimuli_original_animals_fish_4.png	A	0	0	0	253.895843799924	254.09582749987
59440.75	100	259	7	1	19	7	9	9	1	0	0	stim010_stimuli_original_vehicles_boats_2.png	L	0	0	0	254.295836299891	254.495843499899
59540.75	100	260	7	1	19	8	12	6	0	0	0	stim013_stimuli_original_vehicles_planes_1.png	G	0	0	0	254.695848699892	254.895847799955
59640.75	100	261	7	1	19	9	9	12	1	1	0	stim010_stimuli_original_vehicles_boats_2.png	T	0	0	0	255.095860000001	255.295857699821
59740.75	100	262	7	1	19	10	14	8	0	0	0	stim015_stimuli_original_vehicles_planes_3.png	K	d	255.687697999878	0	255.49587600003	255.695872399956
59840.75	100	263	7	1	19	11	5	12	0	1	1	stim006_stimuli_original_animals_fish_2.png	T	0	0	0	255.895881999983	256.095879199915
59940.75	100	264	7	1	19	12	8	11	0	0	0	stim009_stimuli_original_vehicles_boats_1.png	R	0	0	0	256.295890199952	256.49589949986
60040.75	100	265	7	1	19	13	2	2	0	0	0	stim003_stimuli_original_animals_birds_3.png	C	d	256.887692699907	1	256.695901799947	256.8959017999
60140.75	100	266	7	1	19	14	9	5	0	0	0	stim010_stimuli_original_vehicles_boats_2.png	F	0	0	0	257.095914799953	257.295911699999
60240.75	100	267	7	1	19	15	3	7	0	0	0	stim004_stimuli_original_animals_birds_4.png	J	0	0	0	257.495925599942	257.695925100008
60340.75	100	268	7	1	19	16	11	13	0	0	0	stim012_stimuli_original_vehicles_boats_4.png	U	0	0	0	257.895934799919	258.095936199883
60440.75	100	269	7	1	19	17	15	4	0	0	0	stim016_stimuli_original_vehicles_planes_4.png	E	0	0	0	258.295946199913	258.495950500015
60540.75	100	270	7	1	19	18	4	15	0	0	0	stim005_stimuli_original_animals_fish_1.png	Y	0	0	0	258.695983499987	258.895959499991
60640.75	100	271	7	1	19	19	13	11	0	0	0	stim014_stimuli_original_vehicles_planes_2.png	R	0	0	0	259.095967300003	259.295996699948
60740.75	100	272	7	1	19	20	7	3	0	0	0	stim008_stimuli_original_animals_fish_4.png	D	0	0	0	259.495980199892	259.695976999821
60840.75	100	273	7	1	19	21	5	9	0	0	0	stim006_stimuli_original_animals_fish_2.png	L	0	0	0	259.895988399861	260.095988799818
60940.75	100	274	7	1	19	22	2	2	0	0	0	stim003_stimuli_original_animals_birds_3.png	C	0	0	0	260.295999499969	260.496001699939
61040.75	100	275	7	1	19	23	11	8	0	0	0	stim012_stimuli_original_vehicles_boats_4.png	K	0	0	0	260.696012999862	260.896010800032
61140.75	100	276	7	1	19	24	12	5	1	0	0	stim013_stimuli_original_vehicles_planes_1.png	F	0	0	0	261.096019899938	261.296049099881
61240.75	100	277	7	1	19	25	8	14	0	0	0	stim009_stimuli_original_vehicles_boats_1.png	V	0	0	0	261.496033299947	261.696030399995
61340.75	100	278	7	1	19	26	12	9	1	1	0	stim013_stimuli_original_vehicles_planes_1.png	L	0	0	0	261.896059699822	262.096043499885
61440.75	100	279	7	1	19	27	6	12	0	0	0	stim007_stimuli_original_animals_fish_3.png	T	0	0	0	262.296052600024	262.496057800017
61540.75	100	280	7	1	19	28	9	9	0	1	1	stim010_stimuli_original_vehicles_boats_2.png	L	0	0	0	262.696064400021	262.896064799977
61640.75	100	281	7	1	19	29	0	7	0	0	0	stim001_stimuli_original_animals_birds_1.png	J	0	0	0	263.096073599998	263.296073599951
61740.75	100	282	7	1	19	30	12	0	0	0	0	stim013_stimuli_original_vehicles_planes_1.png	A	0	0	0	263.496099299984	263.696084599942
61840.75	100	283	7	1	19	31	15	13	0	0	0	stim016_stimuli_original_vehicles_planes_4.png	U	0	0	0	263.896108699962	264.096097599948
61940.75	100	284	7	1	19	32	3	1	0	0	0	stim004_stimuli_original_animals_birds_4.png	B	0	0	0	264.296105799964	264.496108499821
62040.75	100	285	7	1	19	33	14	6	0	0	0	stim015_stimuli_original_vehicles_planes_3.png	G	0	0	0	264.696117299842	264.896115399897
62140.75	100	286	7	1	19	34	1	10	0	0	0	stim002_stimuli_original_animals_birds_2.png	Q	0	0	0	265.096132699866	265.2961279999
62240.75	100	287	7	1	19	35	10	4	0	0	0	stim011_stimuli_original_vehicles_boats_3.png	E	0	0	0	265.49614199996	265.696137299994
65190.75	100	288	8	0	4	0	3	0	0	0	0	stim004_stimuli_original_animals_birds_4.png	A	0	0	0	277.296457399847	277.49646309996
65290.75	100	289	8	0	4	1	7	5	0	0	0	stim008_stimuli_original_animals_fish_4.png	F	0	0	0	277.696469299961	277.896464599995
65390.75	100	290	8	0	4	2	5	3	0	0	0	stim006_stimuli_original_animals_fish_2.png	D	0	0	0	278.096476399805	278.296506499872
65490.75	100	291	8	0	4	3	2	2	0	0	0	stim003_stimuli_original_animals_birds_3.png	C	0	0	0	278.496489399811	278.696483599953
65590.75	100	292	8	0	4	4	8	4	0	0	0	stim009_stimuli_original_vehicles_boats_1.png	E	0	0	0	278.896506799851	279.096494599944
65690.75	100	293	8	0	4	5	6	13	0	0	0	stim007_stimuli_original_animals_fish_3.png	U	0	0	0	279.296504499856	279.496506799944
65790.75	100	294	8	0	4	6	14	1	0	0	0	stim015_stimuli_original_vehicles_planes_3.png	B	0	0	0	279.696523099905	279.896519399947
65890.75	100	295	8	0	4	7	11	8	0	1	0	stim012_stimuli_original_vehicles_boats_4.png	K	0	0	0	280.096525299828	280.296527899802
65990.75	100	296	8	0	4	8	6	12	1	0	0	stim007_stimuli_original_animals_fish_3.png	T	0	0	0	280.496551999822	280.696538700024
66090.75	100	297	8	0	4	9	0	8	0	1	0	stim001_stimuli_original_animals_birds_1.png	K	0	0	0	280.896572700003	281.096549700014
66190.75	100	298	8	0	4	10	6	10	1	0	1	stim007_stimuli_original_animals_fish_3.png	Q	d	281.289162599947	1	281.296563399956	281.496568499831
66290.75	100	299	8	0	4	11	9	15	0	0	0	stim010_stimuli_original_vehicles_boats_2.png	Y	0	0	0	281.696571299806	281.89656969998
66390.75	100	300	8	0	4	12	13	9	0	0	0	stim014_stimuli_original_vehicles_planes_2.png	L	d	282.089158699848	1	282.096579500008	282.296582099982
66490.75	100	301	8	0	4	13	10	7	0	0	0	stim011_stimuli_original_vehicles_boats_3.png	J	0	0	0	282.496597699821	282.696590899955
66590.75	100	302	8	0	4	14	15	8	0	0	0	stim016_stimuli_original_vehicles_planes_4.png	K	0	0	0	282.896602199879	283.096614999929
66690.75	100	303	8	0	4	15	4	6	0	0	0	stim005_stimuli_original_animals_fish_1.png	G	0	0	0	283.296618199907	283.496622999897
66790.75	100	304	8	0	4	16	12	14	0	0	0	stim013_stimuli_original_vehicles_planes_1.png	V	0	0	0	283.696623099968	283.896623699926
66890.75	100	305	8	0	4	17	1	11	0	0	0	stim002_stimuli_original_animals_birds_2.png	R	d	284.288423900027	0	284.096635999857	284.296633200021
66990.75	100	306	8	0	4	18	11	1	0	0	0	stim012_stimuli_original_vehicles_boats_4.png	B	0	0	0	284.496653700015	284.696644000011
67090.75	100	307	8	0	4	19	14	12	0	0	0	stim015_stimuli_original_vehicles_planes_3.png	T	0	0	0	284.896656499943	285.096657499904
67190.75	100	308	8	0	4	20	6	4	0	0	0	stim007_stimuli_original_animals_fish_3.png	E	0	0	0	285.296667599818	285.496667699888
67290.75	100	309	8	0	4	21	8	15	0	0	0	stim009_stimuli_original_vehicles_boats_1.png	Y	0	0	0	285.696705400012	285.896675899858
67390.75	100	310	8	0	4	22	7	10	0	0	0	stim008_stimuli_original_animals_fish_4.png	Q	d	286.089313499862	0	286.096702700015	286.296705899993
67490.75	100	311	8	0	4	23	9	13	0	0	0	stim010_stimuli_original_vehicles_boats_2.png	U	0	0	0	286.496703299927	286.696699599968
67590.75	100	312	8	0	4	24	15	9	0	0	0	stim016_stimuli_original_vehicles_planes_4.png	L	0	0	0	286.896707799984	287.096709299833
67690.75	100	313	8	0	4	25	10	6	0	1	0	stim011_stimuli_original_vehicles_boats_3.png	G	0	0	0	287.29672169988	287.496721799951
67790.75	100	314	8	0	4	26	8	0	1	0	0	stim009_stimuli_original_vehicles_boats_1.png	A	0	0	0	287.696731199976	287.896789900027
67890.75	100	315	8	0	4	27	12	6	0	1	0	stim013_stimuli_original_vehicles_planes_1.png	G	0	0	0	288.096742399968	288.296773499809
67990.75	100	316	8	0	4	28	8	11	1	0	1	stim009_stimuli_original_vehicles_boats_1.png	R	0	0	0	288.4967761999	288.696780099999
68090.75	100	317	8	0	4	29	1	14	0	0	0	stim002_stimuli_original_animals_birds_2.png	V	0	0	0	288.896794299828	289.096785999835
68190.75	100	318	8	0	4	30	13	6	0	0	0	stim014_stimuli_original_vehicles_planes_2.png	G	0	0	0	289.296796099981	289.496792499907
68290.75	100	319	8	0	4	31	4	8	0	0	0	stim005_stimuli_original_animals_fish_1.png	K	0	0	0	289.696801199811	289.896797799971
68390.75	100	320	8	0	4	32	2	2	0	0	0	stim003_stimuli_original_animals_birds_3.png	C	0	0	0	290.096809400013	290.296810899861
68490.75	100	321	8	0	4	33	3	5	0	0	0	stim004_stimuli_original_animals_birds_4.png	F	0	0	0	290.496824899921	290.696820899844
68590.75	100	322	8	0	4	34	5	7	0	0	0	stim006_stimuli_original_animals_fish_2.png	J	0	0	0	290.896830199985	291.096831899835
68690.75	100	323	8	0	4	35	0	3	0	0	0	stim001_stimuli_original_animals_birds_1.png	D	0	0	0	291.296841899864	291.496857599821
71641	100	324	9	1	12	0	1	11	0	0	0	stim002_stimuli_original_animals_birds_2.png	R	0	0	0	303.097151299939	303.297147899866
71741	100	325	9	1	12	1	0	12	0	0	0	stim001_stimuli_original_animals_birds_1.png	T	0	0	0	303.497161199804	303.697147799889
71841	100	326	9	1	12	2	4	14	0	0	0	stim005_stimuli_original_animals_fish_1.png	V	0	0	0	303.897156799911	304.097157499986
71941	100	327	9	1	12	3	7	13	0	0	0	stim008_stimuli_original_animals_fish_4.png	U	0	0	0	304.297168700024	304.497171900002
72041	100	328	9	1	12	4	5	3	1	0	0	stim006_stimuli_original_animals_fish_2.png	D	0	0	0	304.697179500014	304.897179599851
72141	100	329	9	1	12	5	3	5	0	0	0	stim004_stimuli_original_animals_birds_4.png	F	0	0	0	305.097191100009	305.297192899976
72241	100	330	9	1	12	6	5	8	1	0	0	stim006_stimuli_original_animals_fish_2.png	K	0	0	0	305.497217699885	305.697199699935
72341	100	331	9	1	12	7	2	1	0	0	0	stim003_stimuli_original_animals_birds_3.png	B	0	0	0	305.897211999865	306.097211099928
72441	100	332	9	1	12	8	15	15	0	0	0	stim016_stimuli_original_vehicles_planes_4.png	Y	0	0	0	306.297221999848	306.497235700022
72541	100	333	9	1	12	9	6	7	0	0	0	stim007_stimuli_original_animals_fish_3.png	J	0	0	0	306.697233999847	306.897233299911
72641	100	334	9	1	12	10	10	6	0	0	0	stim011_stimuli_original_vehicles_boats_3.png	G	0	0	0	307.097255999921	307.297260700027
72741	100	335	9	1	12	11	14	1	0	1	0	stim015_stimuli_original_vehicles_planes_3.png	B	0	0	0	307.497297300026	307.697254099883
72841	100	336	9	1	12	12	9	2	0	0	0	stim010_stimuli_original_vehicles_boats_2.png	C	0	0	0	307.897264299914	308.097265499877
72941	100	337	9	1	12	13	12	1	0	1	1	stim013_stimuli_original_vehicles_planes_1.png	B	0	0	0	308.297289700015	308.497305099852
73041	100	338	9	1	12	14	5	9	0	0	0	stim006_stimuli_original_animals_fish_2.png	L	d	308.889083199902	1	308.697291599819	308.897287299857
73141	100	339	9	1	12	15	13	4	0	0	0	stim014_stimuli_original_vehicles_planes_2.png	E	0	0	0	309.097307499964	309.297298799967
73241	100	340	9	1	12	16	8	0	0	0	0	stim009_stimuli_original_vehicles_boats_1.png	A	0	0	0	309.497313799802	309.697308699833
73341	100	341	9	1	12	17	11	10	0	0	0	stim012_stimuli_original_vehicles_boats_4.png	Q	0	0	0	309.897317999974	310.097328099888
73441	100	342	9	1	12	18	10	11	0	0	0	stim011_stimuli_original_vehicles_boats_3.png	R	0	0	0	310.29732839996	310.497343899915
73541	100	343	9	1	12	19	0	8	0	0	0	stim001_stimuli_original_animals_birds_1.png	K	0	0	0	310.697343399981	310.897340100026
73641	100	344	9	1	12	20	4	13	0	0	0	stim005_stimuli_original_animals_fish_1.png	U	0	0	0	311.097351899836	311.297351300018
73741	100	345	9	1	12	21	9	5	0	0	0	stim010_stimuli_original_vehicles_boats_2.png	F	0	0	0	311.497365499847	311.697384899948
73841	100	346	9	1	12	22	1	12	1	0	0	stim002_stimuli_original_animals_birds_2.png	T	0	0	0	311.89737339993	312.097371999873
73941	100	347	9	1	12	23	2	9	0	0	0	stim003_stimuli_original_animals_birds_3.png	L	0	0	0	312.297383999918	312.497386399889
74041	100	348	9	1	12	24	1	14	1	0	0	stim002_stimuli_original_animals_birds_2.png	V	0	0	0	312.697394999908	312.897394199856
74141	100	349	9	1	12	25	6	10	0	0	0	stim007_stimuli_original_animals_fish_3.png	Q	0	0	0	313.097404999891	313.297406599857
74241	100	350	9	1	12	26	7	6	0	0	0	stim008_stimuli_original_animals_fish_4.png	G	0	0	0	313.497419300023	313.697415499948
74341	100	351	9	1	12	27	15	15	0	0	0	stim016_stimuli_original_vehicles_planes_4.png	Y	0	0	0	313.897432599915	314.097428699955
74441	100	352	9	1	12	28	1	2	0	0	0	stim002_stimuli_original_animals_birds_2.png	C	0	0	0	314.29743499984	314.497451899806
74541	100	353	9	1	12	29	8	5	0	1	0	stim009_stimuli_original_vehicles_boats_1.png	F	0	0	0	314.697458899813	314.897459300002
74641	100	354	9	1	12	30	5	3	0	0	0	stim006_stimuli_original_animals_fish_2.png	D	0	0	0	315.097469199914	315.297469299985
74741	100	355	9	1	12	31	3	5	0	1	1	stim004_stimuli_original_animals_birds_4.png	F	0	0	0	315.497481899802	315.697480199859
74841	100	356	9	1	12	32	13	7	0	0	0	stim014_stimuli_original_vehicles_planes_2.png	J	0	0	0	315.897493700031	316.097491999855
74941	100	357	9	1	12	33	14	4	0	0	0	stim015_stimuli_original_vehicles_planes_3.png	E	0	0	0	316.297502999892	316.497506899992
75041	100	358	9	1	12	34	12	0	0	0	0	stim013_stimuli_original_vehicles_planes_1.png	A	0	0	0	316.697512899991	316.897513099946
75141	100	359	9	1	12	35	11	1	0	0	0	stim012_stimuli_original_vehicles_boats_4.png	B	0	0	0	317.097525199875	317.297524699941
79470.25	100	360	10	0	41	0	8	3	0	0	0	stim009_stimuli_original_vehicles_boats_1.png	D	0	0	0	334.41467099986	334.614668499911
79570.25	100	361	10	0	41	1	10	10	0	0	0	stim011_stimuli_original_vehicles_boats_3.png	Q	0	0	0	334.814678099938	335.014675099868
79670.25	100	362	10	0	41	2	15	2	0	0	0	stim016_stimuli_original_vehicles_planes_4.png	C	0	0	0	335.214695699979	335.414695999818
79770.25	100	363	10	0	41	3	5	4	0	0	0	stim006_stimuli_original_animals_fish_2.png	E	0	0	0	335.614703299943	335.814699499868
79870.25	100	364	10	0	41	4	7	12	0	0	0	stim008_stimuli_original_animals_fish_4.png	T	0	0	0	336.014710499905	336.214719499927
79970.25	100	365	10	0	41	5	1	13	0	0	0	stim002_stimuli_original_animals_birds_2.png	U	0	0	0	336.414727199823	336.614715199918
80070.25	100	366	10	0	41	6	3	5	0	0	0	stim004_stimuli_original_animals_birds_4.png	F	0	0	0	336.814738599816	337.014749799855
80170.25	100	367	10	0	41	7	11	9	0	0	0	stim012_stimuli_original_vehicles_boats_4.png	L	0	0	0	337.214750299929	337.414752299897
80270.25	100	368	10	0	41	8	6	14	0	1	0	stim007_stimuli_original_animals_fish_3.png	V	0	0	0	337.614763799822	337.814760499867
80370.25	100	369	10	0	41	9	14	11	0	0	0	stim015_stimuli_original_vehicles_planes_3.png	R	0	0	0	338.014770699898	338.214776600013
80470.25	100	370	10	0	41	10	11	14	1	1	0	stim012_stimuli_original_vehicles_boats_4.png	V	0	0	0	338.414766700007	338.614776699804
80570.25	100	371	10	0	41	11	0	1	0	0	0	stim001_stimuli_original_animals_birds_1.png	B	0	0	0	338.814787399955	339.014783899998
80670.25	100	372	10	0	41	12	11	6	1	0	1	stim012_stimuli_original_vehicles_boats_4.png	G	0	0	0	339.214805399999	339.414804899832
80770.25	100	373	10	0	41	13	13	14	0	0	0	stim014_stimuli_original_vehicles_planes_2.png	V	d	339.607418200001	1	339.614822799806	339.814814899815
80870.25	100	374	10	0	41	14	9	7	0	0	0	stim010_stimuli_original_vehicles_boats_2.png	J	0	0	0	340.014823799953	340.214824999915
80970.25	100	375	10	0	41	15	12	15	0	0	0	stim013_stimuli_original_vehicles_planes_1.png	Y	0	0	0	340.414836599957	340.614829599857
81070.25	100	376	10	0	41	16	4	8	0	0	0	stim005_stimuli_original_animals_fish_1.png	K	0	0	0	340.81484050001	341.014836999821
81170.25	100	377	10	0	41	17	2	0	0	0	0	stim003_stimuli_original_animals_birds_3.png	A	0	0	0	341.214861699846	341.414859100012
81270.25	100	378	10	0	41	18	0	2	0	0	0	stim001_stimuli_original_animals_birds_1.png	C	0	0	0	341.614862699993	341.814834899968
81370.25	100	379	10	0	41	19	8	4	0	0	0	stim009_stimuli_original_vehicles_boats_1.png	E	0	0	0	342.014870299958	342.214875799837
81470.25	100	380	10	0	41	20	15	12	0	0	0	stim016_stimuli_original_vehicles_planes_4.png	T	0	0	0	342.414885799866	342.614890199853
81570.25	100	381	10	0	41	21	7	9	0	0	0	stim008_stimuli_original_animals_fish_4.png	L	0	0	0	342.814899999881	343.014900499955
81670.25	100	382	10	0	41	22	14	13	0	0	0	stim015_stimuli_original_vehicles_planes_3.png	U	0	0	0	343.214910999872	343.414912599837
81770.25	100	383	10	0	41	23	6	11	0	1	0	stim007_stimuli_original_animals_fish_3.png	R	d	343.80671249982	0	343.614924199879	343.814907199936
81870.25	100	384	10	0	41	24	1	0	0	0	0	stim002_stimuli_original_animals_birds_2.png	A	0	0	0	344.01492999983	344.214932399802
81970.25	100	385	10	0	41	25	14	11	1	1	0	stim015_stimuli_original_vehicles_planes_3.png	R	0	0	0	344.414953399915	344.614939099876
82070.25	100	386	10	0	41	26	11	14	0	0	0	stim012_stimuli_original_vehicles_boats_4.png	V	0	0	0	344.814951099921	345.014944499824
82170.25	100	387	10	0	41	27	14	6	1	0	1	stim015_stimuli_original_vehicles_planes_3.png	G	0	0	0	345.214964599814	345.414964499883
82270.25	100	388	10	0	41	28	9	11	0	0	0	stim010_stimuli_original_vehicles_boats_2.png	R	0	0	0	345.614977799822	345.814973899862
82370.25	100	389	10	0	41	29	5	3	0	0	0	stim006_stimuli_original_animals_fish_2.png	D	0	0	0	346.014989099931	346.214986899868
82470.25	100	390	10	0	41	30	13	1	0	0	0	stim014_stimuli_original_vehicles_planes_2.png	B	0	0	0	346.414995200001	346.614974899916
82570.25	100	391	10	0	41	31	12	7	0	0	0	stim013_stimuli_original_vehicles_planes_1.png	J	0	0	0	346.815006599994	347.015025199857
82670.25	100	392	10	0	41	32	4	5	0	0	0	stim005_stimuli_original_animals_fish_1.png	F	0	0	0	347.215002999874	347.415018099826
82770.5	100	393	10	0	41	33	2	15	0	0	0	stim003_stimuli_original_animals_birds_3.png	Y	0	0	0	347.615028099855	347.815022099996
82870.5	100	394	10	0	41	34	10	10	0	0	0	stim011_stimuli_original_vehicles_boats_3.png	Q	0	0	0	348.015031300019	348.21503349999
82970.5	100	395	10	0	41	35	3	8	0	0	0	stim004_stimuli_original_animals_birds_4.png	K	0	0	0	348.415046699811	348.615044899983
88033	100	396	11	1	26	0	15	11	0	0	0	stim016_stimuli_original_vehicles_planes_4.png	R	0	0	0	368.665595399914	368.865558799822
88133	100	397	11	1	26	1	11	8	0	0	0	stim012_stimuli_original_vehicles_boats_4.png	K	0	0	0	369.065599099966	369.265605799854
88233	100	398	11	1	26	2	14	13	0	0	0	stim015_stimuli_original_vehicles_planes_3.png	U	0	0	0	369.465622299816	369.665615199832
88333	100	399	11	1	26	3	12	3	0	0	0	stim013_stimuli_original_vehicles_planes_1.png	D	0	0	0	369.865624699974	370.065624399809
88433	100	400	11	1	26	4	6	2	0	0	0	stim007_stimuli_original_animals_fish_3.png	C	0	0	0	370.265636899974	370.465606999816
88533	100	401	11	1	26	5	9	7	1	0	0	stim010_stimuli_original_vehicles_boats_2.png	J	0	0	0	370.665647599846	370.86564600002
88633	100	402	11	1	26	6	5	5	0	0	0	stim006_stimuli_original_animals_fish_2.png	F	0	0	0	371.065662499983	371.265644799918
88733	100	403	11	1	26	7	9	6	1	0	0	stim010_stimuli_original_vehicles_boats_2.png	G	0	0	0	371.465661299881	371.665672099916
88833	100	404	11	1	26	8	13	15	0	0	0	stim014_stimuli_original_vehicles_planes_2.png	Y	0	0	0	371.865688499995	372.065677699866
88933	100	405	11	1	26	9	1	0	0	0	0	stim002_stimuli_original_animals_birds_2.png	A	0	0	0	372.265688200016	372.465673899977
89033	100	406	11	1	26	10	3	10	0	0	0	stim004_stimuli_original_animals_birds_4.png	Q	0	0	0	372.665695699863	372.865691999905
89133	100	407	11	1	26	11	8	4	0	0	0	stim009_stimuli_original_vehicles_boats_1.png	E	0	0	0	373.06570399995	373.265701999888
89233	100	408	11	1	26	12	9	13	0	1	0	stim010_stimuli_original_vehicles_boats_2.png	U	0	0	0	373.465691499878	373.665725099854
89333	100	409	11	1	26	13	10	12	0	0	0	stim011_stimuli_original_vehicles_boats_3.png	T	0	0	0	373.86573069985	374.065732099814
89433	100	410	11	1	26	14	0	13	0	1	1	stim001_stimuli_original_animals_birds_1.png	U	0	0	0	374.265743299853	374.465705299983
89533	100	411	11	1	26	15	4	9	0	0	0	stim005_stimuli_original_animals_fish_1.png	L	d	374.857599199982	1	374.665755899856	374.865735600004
89633	100	412	11	1	26	16	2	14	0	0	0	stim003_stimuli_original_animals_birds_3.png	V	0	0	0	375.065748099936	375.265744899865
89733	100	413	11	1	26	17	7	1	0	0	0	stim008_stimuli_original_animals_fish_4.png	B	0	0	0	375.465757800033	375.665761000011
89833	100	414	11	1	26	18	1	7	0	0	0	stim002_stimuli_original_animals_birds_2.png	J	0	0	0	375.865766699892	376.065768499859
89933	100	415	11	1	26	19	14	2	0	0	0	stim015_stimuli_original_vehicles_planes_3.png	C	0	0	0	376.265780400019	376.465777499834
90033	100	416	11	1	26	20	9	4	0	0	0	stim010_stimuli_original_vehicles_boats_2.png	E	0	0	0	376.665792400017	376.865776299965
90133	100	417	11	1	26	21	13	0	1	0	0	stim014_stimuli_original_vehicles_planes_2.png	A	0	0	0	377.06578970002	377.265792099992
90233	100	418	11	1	26	22	12	10	0	0	0	stim013_stimuli_original_vehicles_planes_1.png	Q	0	0	0	377.465810699854	377.665799199836
90333	100	419	11	1	26	23	13	9	1	0	0	stim014_stimuli_original_vehicles_planes_2.png	L	0	0	0	377.865811999887	378.065807399806
90433	100	420	11	1	26	24	4	8	0	0	0	stim005_stimuli_original_animals_fish_1.png	K	0	0	0	378.265818099957	378.465820399811
90533	100	421	11	1	26	25	10	3	0	0	0	stim011_stimuli_original_vehicles_boats_3.png	D	0	0	0	378.665832299972	378.865828000009
90633	100	422	11	1	26	26	0	1	0	0	0	stim001_stimuli_original_animals_birds_1.png	B	0	0	0	379.06584169995	379.265847999835
90733	100	423	11	1	26	27	15	13	0	0	0	stim016_stimuli_original_vehicles_planes_4.png	U	0	0	0	379.465868799947	379.66586529999
90833	100	424	11	1	26	28	6	9	0	1	0	stim007_stimuli_original_animals_fish_3.png	L	0	0	0	379.865876300028	380.065889999969
90933	100	425	11	1	26	29	5	5	0	0	0	stim006_stimuli_original_animals_fish_2.png	F	d	380.258447999833	0	380.265885500005	380.465881899931
91033	100	426	11	1	26	30	7	9	0	1	1	stim008_stimuli_original_animals_fish_4.png	L	0	0	0	380.665895799873	380.865893899929
91133	100	427	11	1	26	31	2	6	0	0	0	stim003_stimuli_original_animals_birds_3.png	G	0	0	0	381.065905099967	381.265905299922
91233	100	428	11	1	26	32	3	12	0	0	0	stim004_stimuli_original_animals_birds_4.png	T	0	0	0	381.465929499827	381.6659124
91333	100	429	11	1	26	33	13	14	0	0	0	stim014_stimuli_original_vehicles_planes_2.png	V	0	0	0	381.865916399984	382.065932999831
91433	100	430	11	1	26	34	8	11	0	0	0	stim009_stimuli_original_vehicles_boats_1.png	R	0	0	0	382.265929999994	382.465931299841
91533	100	431	11	1	26	35	11	15	0	0	0	stim012_stimuli_original_vehicles_boats_4.png	Y	0	0	0	382.665938699851	382.86593650002
92162.25	100	432	12	0	8	0	15	6	0	0	0	stim016_stimuli_original_vehicles_planes_4.png	G	0	0	0	385.182673999807	385.382668699836
92262.25	100	433	12	0	8	1	5	7	0	0	0	stim006_stimuli_original_animals_fish_2.png	J	0	0	0	385.582683499902	385.782679299824
92362.25	100	434	12	0	8	2	9	12	0	0	0	stim010_stimuli_original_vehicles_boats_2.png	T	0	0	0	385.982690699864	386.182693599956
92462.25	100	435	12	0	8	3	12	1	0	0	0	stim013_stimuli_original_vehicles_planes_1.png	B	0	0	0	386.382706000004	386.582704199944
92562.25	100	436	12	0	8	4	1	15	0	0	0	stim002_stimuli_original_animals_birds_2.png	Y	0	0	0	386.782704199897	386.982713699806
92662.25	100	437	12	0	8	5	10	11	0	0	0	stim011_stimuli_original_vehicles_boats_3.png	R	0	0	0	387.182722499827	387.382731099846
92762.25	100	438	12	0	8	6	7	8	0	0	0	stim008_stimuli_original_animals_fish_4.png	K	0	0	0	387.582736899843	387.782734399894
92862.25	100	439	12	0	8	7	4	3	0	0	0	stim005_stimuli_original_animals_fish_1.png	D	0	0	0	387.982744199922	388.182745900005
92962.25	100	440	12	0	8	8	0	15	0	1	0	stim001_stimuli_original_animals_birds_1.png	Y	0	0	0	388.382756499806	388.582757199882
93062.25	100	441	12	0	8	9	11	9	0	0	0	stim012_stimuli_original_vehicles_boats_4.png	L	0	0	0	388.782766399905	388.982768199872
93162.25	100	442	12	0	8	10	4	15	1	1	0	stim005_stimuli_original_animals_fish_1.png	Y	0	0	0	389.182776100002	389.382789199939
93262.25	100	443	12	0	8	11	14	4	0	0	0	stim015_stimuli_original_vehicles_planes_3.png	E	0	0	0	389.582800599979	389.782788299955
93362.25	100	444	12	0	8	12	4	13	1	0	1	stim005_stimuli_original_animals_fish_1.png	U	d	389.975369599881	1	389.982804799918	390.182798099937
93462.25	100	445	12	0	8	13	6	2	0	0	0	stim007_stimuli_original_animals_fish_3.png	C	0	0	0	390.382808199851	390.582822100027
93562.25	100	446	12	0	8	14	2	5	0	0	0	stim003_stimuli_original_animals_birds_3.png	F	0	0	0	390.782820599852	390.982818299904
93662.25	100	447	12	0	8	15	13	0	0	0	0	stim014_stimuli_original_vehicles_planes_2.png	A	0	0	0	391.182831899961	391.382830099901
93762.25	100	448	12	0	8	16	8	10	0	0	0	stim009_stimuli_original_vehicles_boats_1.png	Q	0	0	0	391.582877199864	391.782841099892
93862.25	100	449	12	0	8	17	3	14	0	0	0	stim004_stimuli_original_animals_birds_4.png	V	0	0	0	391.982851299923	392.182868599892
93962.25	100	450	12	0	8	18	14	3	0	0	0	stim015_stimuli_original_vehicles_planes_3.png	D	0	0	0	392.382862299914	392.582887999946
94062.25	100	451	12	0	8	19	10	8	0	0	0	stim011_stimuli_original_vehicles_boats_3.png	K	0	0	0	392.782873000018	392.982873499859
94162.25	100	452	12	0	8	20	0	13	0	0	0	stim001_stimuli_original_animals_birds_1.png	U	0	0	0	393.182885200018	393.382884699851
94262.25	100	453	12	0	8	21	5	2	0	0	0	stim006_stimuli_original_animals_fish_2.png	C	0	0	0	393.582909899997	393.782897599973
94362.25	100	454	12	0	8	22	2	6	0	0	0	stim003_stimuli_original_animals_birds_3.png	G	0	0	0	393.982906299876	394.182934199926
94462.25	100	455	12	0	8	23	13	4	0	1	0	stim014_stimuli_original_vehicles_planes_2.png	E	0	0	0	394.382916599978	394.58293119981
94562.25	100	456	12	0	8	24	4	14	0	0	0	stim005_stimuli_original_animals_fish_1.png	V	0	0	0	394.78295439994	394.982928599929
94662.25	100	457	12	0	8	25	15	4	1	1	0	stim016_stimuli_original_vehicles_planes_4.png	E	0	0	0	395.182939899852	395.382937300019
94762.25	100	458	12	0	8	26	9	11	0	0	0	stim010_stimuli_original_vehicles_boats_2.png	R	d	395.774761299836	0	395.58296179981	395.782950300025
94862.25	100	459	12	0	8	27	15	0	1	0	1	stim016_stimuli_original_vehicles_planes_4.png	A	0	0	0	395.982959599933	396.182956999866
94962.25	100	460	12	0	8	28	3	4	0	0	0	stim004_stimuli_original_animals_birds_4.png	E	0	0	0	396.382973299827	396.582972100005
95062.25	100	461	12	0	8	29	8	7	0	0	0	stim009_stimuli_original_vehicles_boats_1.png	J	0	0	0	396.782993499888	396.982983399881
95162.25	100	462	12	0	8	30	11	10	0	0	0	stim012_stimuli_original_vehicles_boats_4.png	Q	d	397.175526199862	1	397.18299110001	397.383010299876
95262.25	100	463	12	0	8	31	15	1	0	0	0	stim016_stimuli_original_vehicles_planes_4.png	B	0	0	0	397.583014999982	397.783002599841
95362.25	100	464	12	0	8	32	1	12	0	0	0	stim002_stimuli_original_animals_birds_2.png	T	0	0	0	397.983014999889	398.183012599824
95462.25	100	465	12	0	8	33	12	9	0	0	0	stim013_stimuli_original_vehicles_planes_1.png	L	0	0	0	398.383024499984	398.583024999825
95562.25	100	466	12	0	8	34	7	5	0	0	0	stim008_stimuli_original_animals_fish_4.png	F	0	0	0	398.783036799869	398.983032600023
95662.25	100	467	12	0	8	35	6	15	0	0	0	stim007_stimuli_original_animals_fish_3.png	Y	d	399.175607499899	0	399.183044199832	399.383050999837
96399.75	100	468	13	1	2	0	3	4	0	0	0	stim004_stimuli_original_animals_birds_4.png	E	0	0	0	402.133109999821	402.33315059985
96500	100	469	13	1	2	1	10	0	0	0	0	stim011_stimuli_original_vehicles_boats_3.png	A	0	0	0	402.533162999898	402.733160099946
96600	100	470	13	1	2	2	15	2	0	0	0	stim016_stimuli_original_vehicles_planes_4.png	C	0	0	0	402.933169699972	403.133176999865
96700	100	471	13	1	2	3	12	8	0	0	0	stim013_stimuli_original_vehicles_planes_1.png	K	0	0	0	403.333171400009	403.533183399821
96800	100	472	13	1	2	4	13	3	0	0	0	stim014_stimuli_original_vehicles_planes_2.png	D	0	0	0	403.733193899971	403.933190000011
96900	100	473	13	1	2	5	5	9	1	1	0	stim006_stimuli_original_animals_fish_2.png	L	0	0	0	404.133208299987	404.333206099924
97000	100	474	13	1	2	6	6	7	0	0	0	stim007_stimuli_original_animals_fish_3.png	J	0	0	0	404.533215799835	404.733217400033
97100	100	475	13	1	2	7	5	9	1	1	1	stim006_stimuli_original_animals_fish_2.png	L	0	0	0	404.933240899816	405.133224899881
97200	100	476	13	1	2	8	14	15	0	0	0	stim015_stimuli_original_vehicles_planes_3.png	Y	0	0	0	405.333234299906	405.533235399984
97300	100	477	13	1	2	9	11	1	0	0	0	stim012_stimuli_original_vehicles_boats_4.png	B	0	0	0	405.733246299904	405.933246999979
97400	100	478	13	1	2	10	4	9	0	0	0	stim005_stimuli_original_animals_fish_1.png	L	0	0	0	406.133254999993	406.333259499865
97500	100	479	13	1	2	11	9	11	0	0	0	stim010_stimuli_original_vehicles_boats_2.png	R	0	0	0	406.533269299893	406.733268299839
97600	100	480	13	1	2	12	8	13	0	0	0	stim009_stimuli_original_vehicles_boats_1.png	U	0	0	0	406.933279999997	407.133277099812
97700	100	481	13	1	2	13	5	14	0	0	0	stim006_stimuli_original_animals_fish_2.png	V	0	0	0	407.333291799994	407.533307599835
97800	100	482	13	1	2	14	7	5	0	0	0	stim008_stimuli_original_animals_fish_4.png	F	0	0	0	407.733298699837	407.933302299818
97900	100	483	13	1	2	15	2	6	0	0	0	stim003_stimuli_original_animals_birds_3.png	G	0	0	0	408.133312799968	408.333308599889
98000	100	484	13	1	2	16	1	12	0	0	0	stim002_stimuli_original_animals_birds_2.png	T	0	0	0	408.533325099852	408.733323799912
98100	100	485	13	1	2	17	0	10	0	0	0	stim001_stimuli_original_animals_birds_1.png	Q	0	0	0	408.933340099873	409.133322799811
98200	100	486	13	1	2	18	10	0	0	0	0	stim011_stimuli_original_vehicles_boats_3.png	A	0	0	0	409.333347899839	409.533318399917
98300	100	487	13	1	2	19	12	1	0	0	0	stim013_stimuli_original_vehicles_planes_1.png	B	0	0	0	409.7333527999	409.933351599844
98400	100	488	13	1	2	20	6	2	0	0	0	stim007_stimuli_original_animals_fish_3.png	C	0	0	0	410.133368399926	410.333362899953
98500	100	489	13	1	2	21	5	7	0	0	0	stim006_stimuli_original_animals_fish_2.png	J	0	0	0	410.533377100015	410.733352100011
98600	100	490	13	1	2	22	14	5	0	0	0	stim015_stimuli_original_vehicles_planes_3.png	F	0	0	0	410.933383099968	411.133388299961
98700	100	491	13	1	2	23	13	8	0	0	0	stim014_stimuli_original_vehicles_planes_2.png	K	0	0	0	411.333394799847	411.533398699947
98800	100	492	13	1	2	24	11	9	0	0	0	stim012_stimuli_original_vehicles_boats_4.png	L	0	0	0	411.733408999862	411.933410699945
98900	100	493	13	1	2	25	9	4	0	0	0	stim010_stimuli_original_vehicles_boats_2.png	E	0	0	0	412.13344409992	412.333423599834
99000	100	494	13	1	2	26	1	11	0	0	0	stim002_stimuli_original_animals_birds_2.png	R	d	412.725216099992	0	412.533429799834	412.733442299999
99100	100	495	13	1	2	27	15	14	0	0	0	stim016_stimuli_original_vehicles_planes_4.png	V	0	0	0	412.93344019982	413.133438999997
99200	100	496	13	1	2	28	9	5	1	1	0	stim010_stimuli_original_vehicles_boats_2.png	F	0	0	0	413.333449800033	413.533451399999
99300	100	497	13	1	2	29	7	6	0	0	0	stim008_stimuli_original_animals_fish_4.png	G	0	0	0	413.733461000025	413.933484799927
99400	100	498	13	1	2	30	9	5	1	1	1	stim010_stimuli_original_vehicles_boats_2.png	F	0	0	0	414.133478599833	414.33347429987
99500	100	499	13	1	2	31	3	13	0	0	0	stim004_stimuli_original_animals_birds_4.png	U	0	0	0	414.533488799818	414.733480999945
99600	100	500	13	1	2	32	8	12	0	0	0	stim009_stimuli_original_vehicles_boats_1.png	T	0	0	0	414.933503799839	415.133501699893
99700	100	501	13	1	2	33	2	15	0	0	0	stim003_stimuli_original_animals_birds_3.png	Y	0	0	0	415.33351269993	415.533516800031
99800	100	502	13	1	2	34	0	10	0	0	0	stim001_stimuli_original_animals_birds_1.png	Q	0	0	0	415.733519099886	415.933515099809
99900	100	503	13	1	2	35	4	3	0	0	0	stim005_stimuli_original_animals_fish_1.png	D	0	0	0	416.133527899859	416.33352799993
104283.5	100	504	14	0	28	0	12	14	0	0	0	stim013_stimuli_original_vehicles_planes_1.png	V	0	0	0	433.667345299851	433.867339299992
104383.5	100	505	14	0	28	1	13	8	0	0	0	stim014_stimuli_original_vehicles_planes_2.png	K	0	0	0	434.067347799893	434.26734819985
104483.5	100	506	14	0	28	2	8	10	0	0	0	stim009_stimuli_original_vehicles_boats_1.png	Q	0	0	0	434.467358499998	434.667344499845
104583.5	100	507	14	0	28	3	4	2	0	0	0	stim005_stimuli_original_animals_fish_1.png	C	0	0	0	434.86737230001	435.067368999822
104683.5	100	508	14	0	28	4	9	15	0	0	0	stim010_stimuli_original_vehicles_boats_2.png	Y	0	0	0	435.267366799992	435.467374499887
104783.5	100	509	14	0	28	5	14	9	0	0	0	stim015_stimuli_original_vehicles_planes_3.png	L	0	0	0	435.667385199806	435.867383799981
104883.5	100	510	14	0	28	6	15	11	0	0	0	stim016_stimuli_original_vehicles_planes_4.png	R	0	0	0	436.067394200014	436.267392499838
104983.5	100	511	14	0	28	7	11	1	0	0	0	stim012_stimuli_original_vehicles_boats_4.png	B	0	0	0	436.467412599828	436.667415199801
105083.5	100	512	14	0	28	8	7	7	0	0	0	stim008_stimuli_original_animals_fish_4.png	J	0	0	0	436.86742289993	437.067422399996
105183.5	100	513	14	0	28	9	3	0	0	0	0	stim004_stimuli_original_animals_birds_4.png	A	0	0	0	437.267436199822	437.467443699948
105283.5	100	514	14	0	28	10	11	12	1	0	0	stim012_stimuli_original_vehicles_boats_4.png	T	0	0	0	437.66744609992	437.867457899963
105383.5	100	515	14	0	28	11	5	13	0	1	0	stim006_stimuli_original_animals_fish_2.png	U	d	438.259236800019	0	438.067451199982	438.267454799963
105483.5	100	516	14	0	28	12	11	5	1	0	1	stim012_stimuli_original_vehicles_boats_4.png	F	0	0	0	438.467466800008	438.667468299856
105583.5	100	517	14	0	28	13	6	13	0	1	0	stim007_stimuli_original_animals_fish_3.png	U	0	0	0	438.867476699874	439.067474799929
105683.5	100	518	14	0	28	14	0	3	0	0	0	stim001_stimuli_original_animals_birds_1.png	D	d	439.260059199994	1	439.267486799974	439.467487299815
105783.5	100	519	14	0	28	15	10	6	0	0	0	stim011_stimuli_original_vehicles_boats_3.png	G	0	0	0	439.667501199991	439.867499999935
105883.5	100	520	14	0	28	16	2	4	0	0	0	stim003_stimuli_original_animals_birds_3.png	E	0	0	0	440.06747619994	440.267507399898
105983.5	100	521	14	0	28	17	1	13	0	0	0	stim002_stimuli_original_animals_birds_2.png	U	0	0	0	440.46751989983	440.667516999878
106083.5	100	522	14	0	28	18	13	1	0	0	0	stim014_stimuli_original_vehicles_planes_2.png	B	0	0	0	440.867528799921	441.067523499951
106183.5	100	523	14	0	28	19	4	2	0	0	0	stim005_stimuli_original_animals_fish_1.png	C	0	0	0	441.267534599872	441.467531799804
106283.5	100	524	14	0	28	20	6	10	0	0	0	stim007_stimuli_original_animals_fish_3.png	Q	0	0	0	441.667546299985	441.867541600019
106383.5	100	525	14	0	28	21	3	0	0	0	0	stim004_stimuli_original_animals_birds_4.png	A	0	0	0	442.06755479984	442.267556299921
106483.5	100	526	14	0	28	22	13	6	1	0	0	stim014_stimuli_original_vehicles_planes_2.png	G	0	0	0	442.467574700015	442.667589599965
106583.5	100	527	14	0	28	23	5	11	0	1	0	stim006_stimuli_original_animals_fish_2.png	R	0	0	0	442.86758579989	443.067579000024
106683.5	100	528	14	0	28	24	13	5	1	0	1	stim014_stimuli_original_vehicles_planes_2.png	F	0	0	0	443.267593999859	443.467599599855
106783.5	100	529	14	0	28	25	12	11	0	1	0	stim013_stimuli_original_vehicles_planes_1.png	R	d	443.859384699957	1	443.66759979981	443.867598099867
106883.5	100	530	14	0	28	26	0	3	0	0	0	stim001_stimuli_original_animals_birds_1.png	D	0	0	0	444.067607699893	444.267609599978
106983.5	100	531	14	0	28	27	7	7	0	0	0	stim008_stimuli_original_animals_fish_4.png	J	0	0	0	444.467626899946	444.667628699914
107083.5	100	532	14	0	28	28	1	11	0	0	0	stim002_stimuli_original_animals_birds_2.png	R	0	0	0	444.867637399817	445.067635199986
107183.5	100	533	14	0	28	29	11	15	0	0	0	stim012_stimuli_original_vehicles_boats_4.png	Y	0	0	0	445.267648599809	445.467641699826
107283.5	100	534	14	0	28	30	9	14	0	0	0	stim010_stimuli_original_vehicles_boats_2.png	V	0	0	0	445.667655800004	445.867650899803
107383.5	100	535	14	0	28	31	15	9	0	0	0	stim016_stimuli_original_vehicles_planes_4.png	L	0	0	0	446.067663199967	446.267659999896
107483.5	100	536	14	0	28	32	2	4	0	0	0	stim003_stimuli_original_animals_birds_3.png	E	0	0	0	446.467681800015	446.667681899853
107583.5	100	537	14	0	28	33	10	8	0	0	0	stim011_stimuli_original_vehicles_boats_3.png	K	0	0	0	446.867689699866	447.067688899813
107683.5	100	538	14	0	28	34	8	13	0	0	0	stim009_stimuli_original_vehicles_boats_1.png	U	0	0	0	447.26770159998	447.467697900021
107783.5	100	539	14	0	28	35	14	12	0	0	0	stim015_stimuli_original_vehicles_planes_3.png	T	0	0	0	447.667715699878	447.867712399922
109683.5	100	540	15	1	17	0	6	7	0	0	0	stim007_stimuli_original_animals_fish_3.png	J	0	0	0	455.267888400005	455.467884399928
109783.5	100	541	15	1	17	1	13	8	0	0	0	stim014_stimuli_original_vehicles_planes_2.png	K	0	0	0	455.667924799956	455.867917399853
109883.5	100	542	15	1	17	2	3	5	0	0	0	stim004_stimuli_original_animals_birds_4.png	F	0	0	0	456.067908099853	456.267906599911
109983.5	100	543	15	1	17	3	2	15	0	0	0	stim003_stimuli_original_animals_birds_3.png	Y	0	0	0	456.467916399939	456.667924399953
110083.5	100	544	15	1	17	4	15	4	0	0	0	stim016_stimuli_original_vehicles_planes_4.png	E	0	0	0	456.867928399937	457.067927900003
110183.5	100	545	15	1	17	5	11	10	0	0	0	stim012_stimuli_original_vehicles_boats_4.png	Q	0	0	0	457.267941499827	457.467939399881
110283.5	100	546	15	1	17	6	1	14	0	0	0	stim002_stimuli_original_animals_birds_2.png	V	0	0	0	457.667965299916	457.867950699991
110383.5	100	547	15	1	17	7	3	6	1	0	0	stim004_stimuli_original_animals_birds_4.png	G	0	0	0	458.067960900022	458.267977599986
110483.5	100	548	15	1	17	8	10	9	0	0	0	stim011_stimuli_original_vehicles_boats_3.png	L	0	0	0	458.467971900012	458.667978700018
110583.5	100	549	15	1	17	9	3	11	1	0	0	stim004_stimuli_original_animals_birds_4.png	R	0	0	0	458.867981799878	459.06798209995
110683.5	100	550	15	1	17	10	12	4	0	1	0	stim013_stimuli_original_vehicles_planes_1.png	E	0	0	0	459.267994299997	459.467994599836
110783.5	100	551	15	1	17	11	4	0	0	0	0	stim005_stimuli_original_animals_fish_1.png	A	0	0	0	459.668019899866	459.868013300002
110883.5	100	552	15	1	17	12	7	4	0	1	1	stim008_stimuli_original_animals_fish_4.png	E	0	0	0	460.068025399931	460.268036899855
110983.5	100	553	15	1	17	13	8	3	0	0	0	stim009_stimuli_original_vehicles_boats_1.png	D	0	0	0	460.468036799924	460.668025800027
111083.5	100	554	15	1	17	14	9	12	0	0	0	stim010_stimuli_original_vehicles_boats_2.png	T	0	0	0	460.868037699955	461.068036499899
111183.5	100	555	15	1	17	15	5	2	0	0	0	stim006_stimuli_original_animals_fish_2.png	C	0	0	0	461.268048099941	461.468045799993
111283.5	100	556	15	1	17	16	0	1	0	0	0	stim001_stimuli_original_animals_birds_1.png	B	0	0	0	461.66805889993	461.868057399988
111383.5	100	557	15	1	17	17	14	13	0	0	0	stim015_stimuli_original_vehicles_planes_3.png	U	0	0	0	462.068070699926	462.268068299862
111483.5	100	558	15	1	17	18	13	14	0	0	0	stim014_stimuli_original_vehicles_planes_2.png	V	0	0	0	462.468109099893	462.668094599852
111583.5	100	559	15	1	17	19	1	0	0	0	0	stim002_stimuli_original_animals_birds_2.png	A	0	0	0	462.868100299966	463.068116599927
111683.5	100	560	15	1	17	20	2	5	0	0	0	stim003_stimuli_original_animals_birds_3.png	F	0	0	0	463.268113899976	463.468110299902
111783.5	100	561	15	1	17	21	12	9	0	0	0	stim013_stimuli_original_vehicles_planes_1.png	L	0	0	0	463.668113199994	463.868112899829
111883.5	100	562	15	1	17	22	3	8	0	0	0	stim004_stimuli_original_animals_birds_4.png	K	0	0	0	464.068122399971	464.268124099821
111983.5	100	563	15	1	17	23	4	7	1	0	0	stim005_stimuli_original_animals_fish_1.png	J	0	0	0	464.468131799949	464.668135299813
112083.5	100	564	15	1	17	24	0	4	0	0	0	stim001_stimuli_original_animals_birds_1.png	E	0	0	0	464.868142099818	465.068169599865
112183.5	100	565	15	1	17	25	4	12	1	0	0	stim005_stimuli_original_animals_fish_1.png	T	0	0	0	465.268152699806	465.468153299997
112283.5	100	566	15	1	17	26	11	3	0	1	0	stim012_stimuli_original_vehicles_boats_4.png	D	0	0	0	465.668185599847	465.86816469999
112383.5	100	567	15	1	17	27	9	10	0	0	0	stim010_stimuli_original_vehicles_boats_2.png	Q	0	0	0	466.068174900021	466.268176199868
112483.5	100	568	15	1	17	28	6	3	0	1	1	stim007_stimuli_original_animals_fish_3.png	D	0	0	0	466.468186599901	466.668189599877
112583.5	100	569	15	1	17	29	14	1	0	0	0	stim015_stimuli_original_vehicles_planes_3.png	B	0	0	0	466.868195499992	467.068197899964
112683.5	100	570	15	1	17	30	10	11	0	0	0	stim011_stimuli_original_vehicles_boats_3.png	R	d	467.260745899985	1	467.268214799929	467.468207299942
112783.5	100	571	15	1	17	31	4	15	0	0	0	stim005_stimuli_original_animals_fish_1.png	Y	0	0	0	467.668235399993	467.868219599826
112883.5	100	572	15	1	17	32	15	2	0	0	0	stim016_stimuli_original_vehicles_planes_4.png	C	0	0	0	468.068227999844	468.268230099929
112983.5	100	573	15	1	17	33	5	3	0	0	0	stim006_stimuli_original_animals_fish_2.png	D	0	0	0	468.46823889995	468.668242199812
113083.5	100	574	15	1	17	34	8	13	0	0	0	stim009_stimuli_original_vehicles_boats_1.png	U	0	0	0	468.868252199842	469.068249299889
113183.5	100	575	15	1	17	35	7	6	0	0	0	stim008_stimuli_original_animals_fish_4.png	G	0	0	0	469.268260599812	469.468262099894
114762.75	100	576	16	0	25	0	4	7	0	0	0	stim005_stimuli_original_animals_fish_1.png	J	0	0	0	475.585108999861	475.78509569983
114862.75	100	577	16	0	25	1	2	11	0	0	0	stim003_stimuli_original_animals_birds_3.png	R	0	0	0	475.985108099878	476.185105999932
114962.75	100	578	16	0	25	2	15	13	0	0	0	stim016_stimuli_original_vehicles_planes_4.png	U	0	0	0	476.385116599966	476.5851292999
115062.75	100	579	16	0	25	3	3	6	0	0	0	stim004_stimuli_original_animals_birds_4.png	G	0	0	0	476.785139199812	476.985129499808
115162.75	100	580	16	0	25	4	12	15	0	0	0	stim013_stimuli_original_vehicles_planes_1.png	Y	0	0	0	477.18513849983	477.385141799925
115262.75	100	581	16	0	25	5	11	12	0	0	0	stim012_stimuli_original_vehicles_boats_4.png	T	0	0	0	477.585149999941	477.785148499999
115362.75	100	582	16	0	25	6	7	4	0	0	0	stim008_stimuli_original_animals_fish_4.png	E	0	0	0	477.985163199948	478.185164199909
115462.75	100	583	16	0	25	7	12	2	1	0	0	stim013_stimuli_original_vehicles_planes_1.png	C	0	0	0	478.38517179992	478.585172099993
115562.75	100	584	16	0	25	8	9	1	0	1	0	stim010_stimuli_original_vehicles_boats_2.png	B	0	0	0	478.785181300016	478.985184399877
115662.75	100	585	16	0	25	9	12	0	1	0	1	stim013_stimuli_original_vehicles_planes_1.png	A	0	0	0	479.185192900011	479.385191499954
115762.75	100	586	16	0	25	10	6	1	0	1	0	stim007_stimuli_original_animals_fish_3.png	B	d	479.777012399863	1	479.585217999993	479.785214199917
115862.75	100	587	16	0	25	11	10	8	0	0	0	stim011_stimuli_original_vehicles_boats_3.png	K	0	0	0	479.985217100009	480.18521409994
115962.75	100	588	16	0	25	12	1	5	0	0	0	stim002_stimuli_original_animals_birds_2.png	F	0	0	0	480.385224699974	480.585236799903
116062.75	100	589	16	0	25	13	8	14	0	0	0	stim009_stimuli_original_vehicles_boats_1.png	V	0	0	0	480.785247399937	480.985235799802
116162.75	100	590	16	0	25	14	13	10	0	0	0	stim014_stimuli_original_vehicles_planes_2.png	Q	0	0	0	481.185244799824	481.38524600002
116262.75	100	591	16	0	25	15	5	3	0	0	0	stim006_stimuli_original_animals_fish_2.png	D	0	0	0	481.58526870003	481.785269199871
116362.75	100	592	16	0	25	16	14	1	0	0	0	stim015_stimuli_original_vehicles_planes_3.png	B	0	0	0	481.985268799821	482.185270200018
116462.75	100	593	16	0	25	17	0	9	0	0	0	stim001_stimuli_original_animals_birds_1.png	L	0	0	0	482.385277299909	482.585289799841
116562.75	100	594	16	0	25	18	9	0	0	0	0	stim010_stimuli_original_vehicles_boats_2.png	A	0	0	0	482.785300099989	482.985289499862
116662.75	100	595	16	0	25	19	1	14	0	0	0	stim002_stimuli_original_animals_birds_2.png	V	0	0	0	483.185298600001	483.385301099857
116762.75	100	596	16	0	25	20	3	5	0	0	0	stim004_stimuli_original_animals_birds_4.png	F	0	0	0	483.585322699975	483.785320899915
116862.75	100	597	16	0	25	21	10	13	0	0	0	stim011_stimuli_original_vehicles_boats_3.png	U	0	0	0	483.985322299879	484.185320499819
116962.75	100	598	16	0	25	22	14	8	0	0	0	stim015_stimuli_original_vehicles_planes_3.png	K	0	0	0	484.38533069985	484.585345099913
117062.75	100	599	16	0	25	23	5	1	0	0	0	stim006_stimuli_original_animals_fish_2.png	B	0	0	0	484.785371599952	484.985344999935
117162.75	100	600	16	0	25	24	8	10	0	0	0	stim009_stimuli_original_vehicles_boats_1.png	Q	0	0	0	485.185367199825	485.38535519992
117262.75	100	601	16	0	25	25	1	6	1	0	0	stim002_stimuli_original_animals_birds_2.png	G	0	0	0	485.585379799828	485.785377199994
117362.75	100	602	16	0	25	26	0	12	0	1	0	stim001_stimuli_original_animals_birds_1.png	T	0	0	0	485.985380999977	486.185373599874
117462.75	100	603	16	0	25	27	1	9	1	0	1	stim002_stimuli_original_animals_birds_2.png	L	0	0	0	486.385385100031	486.585385399871
117562.75	100	604	16	0	25	28	2	12	0	1	0	stim003_stimuli_original_animals_birds_3.png	T	0	0	0	486.785398099804	486.985397399869
117662.75	100	605	16	0	25	29	4	7	0	0	0	stim005_stimuli_original_animals_fish_1.png	J	0	0	0	487.185405299999	487.385406399844
117763	100	606	16	0	25	30	12	11	0	0	0	stim013_stimuli_original_vehicles_planes_1.png	R	0	0	0	487.585417399881	487.785416299943
117863	100	607	16	0	25	31	15	12	0	0	0	stim016_stimuli_original_vehicles_planes_4.png	T	0	0	0	487.985432900023	488.185429899953
117963	100	608	16	0	25	32	6	3	0	0	0	stim007_stimuli_original_animals_fish_3.png	D	0	0	0	488.38543899986	488.585451500025
118063	100	609	16	0	25	33	13	15	0	0	0	stim014_stimuli_original_vehicles_planes_2.png	Y	0	0	0	488.78546179994	488.985449899919
118163	100	610	16	0	25	34	11	2	0	0	0	stim012_stimuli_original_vehicles_boats_4.png	C	0	0	0	489.185460199835	489.385460200021
118263	100	611	16	0	25	35	7	4	0	0	0	stim008_stimuli_original_animals_fish_4.png	E	0	0	0	489.585506499978	489.785485599888
120038	100	612	17	1	18	0	12	13	0	0	0	stim013_stimuli_original_vehicles_planes_1.png	U	0	0	0	496.685679099988	496.885672499891
120138	100	613	17	1	18	1	9	8	0	0	0	stim010_stimuli_original_vehicles_boats_2.png	K	0	0	0	497.085682499921	497.285671399906
120238	100	614	17	1	18	2	5	9	0	0	0	stim006_stimuli_original_animals_fish_2.png	L	0	0	0	497.485697399825	497.685695799999
120338	100	615	17	1	18	3	7	4	0	0	0	stim008_stimuli_original_animals_fish_4.png	E	0	0	0	497.885708699934	498.085704999976
120438	100	616	17	1	18	4	14	10	0	0	0	stim015_stimuli_original_vehicles_planes_3.png	Q	0	0	0	498.285704999929	498.485705799889
120538	100	617	17	1	18	5	2	6	0	1	0	stim003_stimuli_original_animals_birds_3.png	G	0	0	0	498.685716199921	498.885713499971
120638	100	618	17	1	18	6	8	3	1	0	0	stim009_stimuli_original_vehicles_boats_1.png	D	0	0	0	499.085725199897	499.285726399859
120738	100	619	17	1	18	7	4	6	0	1	1	stim005_stimuli_original_animals_fish_1.png	G	0	0	0	499.485754699912	499.68574869982
120838	100	620	17	1	18	8	8	0	1	0	0	stim009_stimuli_original_vehicles_boats_1.png	A	0	0	0	499.88576059998	500.085757399909
120938	100	621	17	1	18	9	15	14	0	0	0	stim016_stimuli_original_vehicles_planes_4.png	V	d	500.477559800027	1	500.285769799957	500.485773999942
121038	100	622	17	1	18	10	11	5	0	0	0	stim012_stimuli_original_vehicles_boats_4.png	F	0	0	0	500.685781599954	500.885781599907
121138	100	623	17	1	18	11	0	11	0	0	0	stim001_stimuli_original_animals_birds_1.png	R	0	0	0	501.085793199949	501.285779000027
121238	100	624	17	1	18	12	6	1	0	0	0	stim007_stimuli_original_animals_fish_3.png	B	0	0	0	501.485791699961	501.685793599812
121338	100	625	17	1	18	13	3	6	0	0	0	stim004_stimuli_original_animals_birds_4.png	G	0	0	0	501.885801399825	502.085801499896
121438	100	626	17	1	18	14	10	7	0	0	0	stim011_stimuli_original_vehicles_boats_3.png	J	0	0	0	502.285816899966	502.48583010002
121538	100	627	17	1	18	15	1	12	0	0	0	stim002_stimuli_original_animals_birds_2.png	T	0	0	0	502.685834799893	502.885832199827
121638	100	628	17	1	18	16	8	15	0	0	0	stim009_stimuli_original_vehicles_boats_1.png	Y	0	0	0	503.085846700007	503.285834099865
121738	100	629	17	1	18	17	13	2	0	0	0	stim014_stimuli_original_vehicles_planes_2.png	C	0	0	0	503.485849799821	503.685845999978
121838	100	630	17	1	18	18	2	13	0	0	0	stim003_stimuli_original_animals_birds_3.png	U	0	0	0	503.885855800007	504.085854399949
121938	100	631	17	1	18	19	15	8	0	0	0	stim016_stimuli_original_vehicles_planes_4.png	K	0	0	0	504.28586579999	504.485879499931
122038	100	632	17	1	18	20	12	1	0	0	0	stim013_stimuli_original_vehicles_planes_1.png	B	0	0	0	504.685890499968	504.885887299897
122138	100	633	17	1	18	21	7	10	0	0	0	stim008_stimuli_original_animals_fish_4.png	Q	0	0	0	505.08589769993	505.285886399914
122238	100	634	17	1	18	22	6	3	0	0	0	stim007_stimuli_original_animals_fish_3.png	D	0	0	0	505.485906000016	505.685900099808
122338	100	635	17	1	18	23	1	6	0	0	0	stim002_stimuli_original_animals_birds_2.png	G	0	0	0	505.885909699835	506.0859069
122438	100	636	17	1	18	24	11	0	0	0	0	stim012_stimuli_original_vehicles_boats_4.png	A	0	0	0	506.285918599926	506.485932999989
122538	100	637	17	1	18	25	5	11	0	0	0	stim006_stimuli_original_animals_fish_2.png	R	d	506.877731299959	0	506.685941299889	506.885943399975
122638	100	638	17	1	18	26	14	15	0	0	0	stim015_stimuli_original_vehicles_planes_3.png	Y	0	0	0	507.085952399997	507.285941399867
122738	100	639	17	1	18	27	0	8	0	1	0	stim001_stimuli_original_animals_birds_1.png	K	0	0	0	507.485958499834	507.685951199848
122838	100	640	17	1	18	28	6	4	1	0	0	stim007_stimuli_original_animals_fish_3.png	E	0	0	0	507.885961699998	508.085962199839
122938	100	641	17	1	18	29	3	8	0	1	1	stim004_stimuli_original_animals_birds_4.png	K	0	0	0	508.285974199884	508.485975899966
123038	100	642	17	1	18	30	6	2	1	0	0	stim007_stimuli_original_animals_fish_3.png	C	d	508.877773299813	1	508.685982599854	508.885982299922
123138	100	643	17	1	18	31	10	14	0	0	0	stim011_stimuli_original_vehicles_boats_3.png	V	0	0	0	509.085992699955	509.285994499922
123238	100	644	17	1	18	32	4	7	0	0	0	stim005_stimuli_original_animals_fish_1.png	J	0	0	0	509.486008499982	509.686007999815
123338	100	645	17	1	18	33	9	5	0	0	0	stim010_stimuli_original_vehicles_boats_2.png	F	0	0	0	509.886016999837	510.086014099885
123438	100	646	17	1	18	34	8	9	0	0	0	stim009_stimuli_original_vehicles_boats_1.png	L	0	0	0	510.286027099937	510.486027699895
123538	100	647	17	1	18	35	13	12	0	0	0	stim014_stimuli_original_vehicles_planes_2.png	T	0	0	0	510.686037599808	510.886036599986
125850.5	100	648	18	0	24	0	6	13	0	0	0	stim007_stimuli_original_animals_fish_3.png	U	0	0	0	519.93631579983	520.136311599985
125950.5	100	649	18	0	24	1	7	2	0	0	0	stim008_stimuli_original_animals_fish_4.png	C	0	0	0	520.336323899915	520.536328899907
126050.5	100	650	18	0	24	2	8	10	0	0	0	stim009_stimuli_original_vehicles_boats_1.png	Q	0	0	0	520.736337299924	520.936331499834
126150.5	100	651	18	0	24	3	12	1	0	0	0	stim013_stimuli_original_vehicles_planes_1.png	B	0	0	0	521.136341999983	521.336344899843
126250.5	100	652	18	0	24	4	11	12	0	0	0	stim012_stimuli_original_vehicles_boats_4.png	T	0	0	0	521.53636249993	521.736352999927
126350.5	100	653	18	0	24	5	15	11	0	0	0	stim016_stimuli_original_vehicles_planes_4.png	R	0	0	0	521.936371000018	522.136364299804
126450.5	100	654	18	0	24	6	14	3	0	0	0	stim015_stimuli_original_vehicles_planes_3.png	D	d	522.528175299987	0	522.336376099847	522.53637729981
126550.5	100	655	18	0	24	7	3	5	0	0	0	stim004_stimuli_original_animals_birds_4.png	F	0	0	0	522.736387499841	522.936385900015
126650.5	100	656	18	0	24	8	5	9	0	0	0	stim006_stimuli_original_animals_fish_2.png	L	0	0	0	523.136395899812	523.336394599872
126750.5	100	657	18	0	24	9	2	4	0	0	0	stim003_stimuli_original_animals_birds_3.png	E	0	0	0	523.536421099911	523.736417799955
126850.5	100	658	18	0	24	10	14	15	1	1	0	stim015_stimuli_original_vehicles_planes_3.png	Y	0	0	0	523.936427699868	524.136428799946
126950.5	100	659	18	0	24	11	0	8	0	0	0	stim001_stimuli_original_animals_birds_1.png	K	0	0	0	524.336439899867	524.53643759992
127050.5	100	660	18	0	24	12	14	15	1	1	1	stim015_stimuli_original_vehicles_planes_3.png	Y	d	524.729039700003	1	524.736449699849	524.93644979992
127150.5	100	661	18	0	24	13	9	14	0	0	0	stim010_stimuli_original_vehicles_boats_2.png	V	0	0	0	525.136442499934	525.336458399892
127250.5	100	662	18	0	24	14	1	6	0	0	0	stim002_stimuli_original_animals_birds_2.png	G	d	525.728254099842	1	525.536469699815	525.736470100004
127350.5	100	663	18	0	24	15	13	15	0	0	0	stim014_stimuli_original_vehicles_planes_2.png	Y	0	0	0	525.936481199926	526.13647789997
127450.5	100	664	18	0	24	16	10	7	0	0	0	stim011_stimuli_original_vehicles_boats_3.png	J	0	0	0	526.33649399993	526.536491099978
127550.75	100	665	18	0	24	17	4	0	0	0	0	stim005_stimuli_original_animals_fish_1.png	A	0	0	0	526.736517400015	526.936502699973
127650.75	100	666	18	0	24	18	0	4	0	0	0	stim001_stimuli_original_animals_birds_1.png	E	0	0	0	527.13653509994	527.336509999819
127750.75	100	667	18	0	24	19	7	10	0	0	0	stim008_stimuli_original_animals_fish_4.png	Q	0	0	0	527.536524900002	527.736523799831
127850.75	100	668	18	0	24	20	15	13	0	0	0	stim016_stimuli_original_vehicles_planes_4.png	U	0	0	0	527.936538500013	528.13653509994
127950.75	100	669	18	0	24	21	6	1	0	0	0	stim007_stimuli_original_animals_fish_3.png	B	0	0	0	528.336545599857	528.536540099885
128050.75	100	670	18	0	24	22	14	9	0	0	0	stim015_stimuli_original_vehicles_planes_3.png	L	0	0	0	528.736550599802	528.936529599829
128150.75	100	671	18	0	24	23	15	14	1	1	0	stim016_stimuli_original_vehicles_planes_4.png	V	d	529.328341600019	0	529.136557899881	529.33655779995
128250.75	100	672	18	0	24	24	8	0	0	0	0	stim009_stimuli_original_vehicles_boats_1.png	A	0	0	0	529.536571000004	529.736568499822
128350.75	100	673	18	0	24	25	15	14	1	1	1	stim016_stimuli_original_vehicles_planes_4.png	V	0	0	0	529.936582199996	530.136579899816
128450.75	100	674	18	0	24	26	4	2	0	0	0	stim005_stimuli_original_animals_fish_1.png	C	0	0	0	530.336592099862	530.536593999946
128550.75	100	675	18	0	24	27	9	5	0	0	0	stim010_stimuli_original_vehicles_boats_2.png	F	0	0	0	530.736603799975	530.936603599926
128650.75	100	676	18	0	24	28	5	3	0	0	0	stim006_stimuli_original_animals_fish_2.png	D	0	0	0	531.13661019993	531.336610500002
128750.75	100	677	18	0	24	29	3	14	0	0	0	stim004_stimuli_original_animals_birds_4.png	V	0	0	0	531.536642399849	531.736631099833
128850.75	100	678	18	0	24	30	11	15	0	0	0	stim012_stimuli_original_vehicles_boats_4.png	Y	0	0	0	531.936655399855	532.136625399813
128950.75	100	679	18	0	24	31	12	11	0	0	0	stim013_stimuli_original_vehicles_planes_1.png	R	0	0	0	532.33665479999	532.536654299824
129050.75	100	680	18	0	24	32	1	12	0	0	0	stim002_stimuli_original_animals_birds_2.png	T	0	0	0	532.736660999944	532.936665299814
129150.75	100	681	18	0	24	33	10	8	0	0	0	stim011_stimuli_original_vehicles_boats_3.png	K	0	0	0	533.136672099819	533.336674300022
129250.75	100	682	18	0	24	34	2	7	0	0	0	stim003_stimuli_original_animals_birds_3.png	J	0	0	0	533.536689999979	533.736687999917
129350.75	100	683	18	0	24	35	13	6	0	0	0	stim014_stimuli_original_vehicles_planes_2.png	G	0	0	0	533.936696799938	534.136694799876
130542.25	100	684	19	1	37	0	11	6	0	0	0	stim012_stimuli_original_vehicles_boats_4.png	G	0	0	0	538.703497899929	538.903489099815
130642.25	100	685	19	1	37	1	12	4	0	0	0	stim013_stimuli_original_vehicles_planes_1.png	E	0	0	0	539.103503199993	539.303527399898
130742.25	100	686	19	1	37	2	4	7	0	0	0	stim005_stimuli_original_animals_fish_1.png	J	0	0	0	539.50350510003	539.7035093999
130842.25	100	687	19	1	37	3	8	15	0	0	0	stim009_stimuli_original_vehicles_boats_1.png	Y	0	0	0	539.903521399945	540.103530599969
130942.25	100	688	19	1	37	4	13	13	0	0	0	stim014_stimuli_original_vehicles_planes_2.png	U	0	0	0	540.303530199919	540.503534199903
131042.25	100	689	19	1	37	5	1	12	0	0	0	stim002_stimuli_original_animals_birds_2.png	T	0	0	0	540.703540500021	540.90353869996
131142.25	100	690	19	1	37	6	15	5	1	0	0	stim016_stimuli_original_vehicles_planes_4.png	F	0	0	0	541.10354819987	541.303550799843
131242.5	100	691	19	1	37	7	10	10	0	0	0	stim011_stimuli_original_vehicles_boats_3.png	Q	0	0	0	541.50355569995	541.703562099952
131342.5	100	692	19	1	37	8	15	9	1	0	0	stim016_stimuli_original_vehicles_planes_4.png	L	0	0	0	541.903568499954	542.103568099905
131442.5	100	693	19	1	37	9	7	13	0	1	0	stim008_stimuli_original_animals_fish_4.png	U	0	0	0	542.303576899925	542.503583999816
131542.5	100	694	19	1	37	10	2	1	0	0	0	stim003_stimuli_original_animals_birds_3.png	B	0	0	0	542.703599199886	542.903599299956
131642.5	100	695	19	1	37	11	9	13	0	1	1	stim010_stimuli_original_vehicles_boats_2.png	U	d	543.303756499896	1	543.103610999882	543.303596999962
131742.5	100	696	19	1	37	12	0	14	0	0	0	stim001_stimuli_original_animals_birds_1.png	V	0	0	0	543.503614499932	543.703619999811
131842.5	100	697	19	1	37	13	3	3	0	0	0	stim004_stimuli_original_animals_birds_4.png	D	0	0	0	543.903628799831	544.103626600001
131942.5	100	698	19	1	37	14	6	0	0	0	0	stim007_stimuli_original_animals_fish_3.png	A	0	0	0	544.303637799807	544.503641400021
132042.5	100	699	19	1	37	15	15	8	0	0	0	stim016_stimuli_original_vehicles_planes_4.png	K	0	0	0	544.703650299925	544.903638599906
132142.5	100	700	19	1	37	16	5	2	0	0	0	stim006_stimuli_original_animals_fish_2.png	C	0	0	0	545.103662899928	545.303644999862
132242.5	100	701	19	1	37	17	14	11	0	0	0	stim015_stimuli_original_vehicles_planes_3.png	R	0	0	0	545.503665599972	545.703666499816
132342.5	100	702	19	1	37	18	11	14	0	0	0	stim012_stimuli_original_vehicles_boats_4.png	V	0	0	0	545.903676499845	546.103674300015
132442.5	100	703	19	1	37	19	2	5	0	0	0	stim003_stimuli_original_animals_birds_3.png	F	0	0	0	546.303688199958	546.503686799901
132542.5	100	704	19	1	37	20	8	15	0	0	0	stim009_stimuli_original_vehicles_boats_1.png	Y	0	0	0	546.70370459999	546.903706499841
132642.5	100	705	19	1	37	21	0	6	0	0	0	stim001_stimuli_original_animals_birds_1.png	G	0	0	0	547.103714699857	547.303707899991
132742.5	100	706	19	1	37	22	3	3	0	0	0	stim004_stimuli_original_animals_birds_4.png	D	0	0	0	547.503720799927	547.70372949983
132842.5	100	707	19	1	37	23	14	0	0	0	0	stim015_stimuli_original_vehicles_planes_3.png	A	0	0	0	547.903753199847	548.103735999903
132942.5	100	708	19	1	37	24	13	9	1	0	0	stim014_stimuli_original_vehicles_planes_2.png	L	0	0	0	548.303746899823	548.503747799899
133042.5	100	709	19	1	37	25	1	2	0	0	0	stim002_stimuli_original_animals_birds_2.png	C	0	0	0	548.703756699804	548.903755999869
133142.5	100	710	19	1	37	26	13	7	1	0	0	stim014_stimuli_original_vehicles_planes_2.png	J	0	0	0	549.103768199915	549.303769599879
133242.5	100	711	19	1	37	27	9	15	0	1	0	stim010_stimuli_original_vehicles_boats_2.png	Y	0	0	0	549.503779599909	549.70378199988
133342.5	100	712	19	1	37	28	10	10	0	0	0	stim011_stimuli_original_vehicles_boats_3.png	Q	0	0	0	549.903789999895	550.103789699962
133442.5	100	713	19	1	37	29	5	15	0	1	1	stim006_stimuli_original_animals_fish_2.png	Y	0	0	0	550.303802199895	550.503803499974
133542.5	100	714	19	1	37	30	12	1	0	0	0	stim013_stimuli_original_vehicles_planes_1.png	B	d	550.895587999839	1	550.703801699914	550.903811699944
133642.5	100	715	19	1	37	31	13	13	0	0	0	stim014_stimuli_original_vehicles_planes_2.png	U	0	0	0	551.103822199861	551.303825199837
133742.5	100	716	19	1	37	32	15	8	0	0	0	stim016_stimuli_original_vehicles_planes_4.png	K	0	0	0	551.503819399979	551.70383569994
133842.5	100	717	19	1	37	33	7	4	0	0	0	stim008_stimuli_original_animals_fish_4.png	E	0	0	0	551.903846199857	552.103842600016
133942.5	100	718	19	1	37	34	4	12	0	0	0	stim005_stimuli_original_animals_fish_1.png	T	0	0	0	552.303858299972	552.503848699853
134042.5	100	719	19	1	37	35	6	11	0	0	0	stim007_stimuli_original_animals_fish_3.png	R	0	0	0	552.703855799977	552.903857399942
135542.5	100	720	20	0	9	0	12	1	0	0	0	stim013_stimuli_original_vehicles_planes_1.png	B	0	0	0	558.704012099886	558.904007599922
135642.5	100	721	20	0	9	1	13	0	0	0	0	stim014_stimuli_original_vehicles_planes_2.png	A	0	0	0	559.104018599959	559.304018799914
135742.5	100	722	20	0	9	2	8	5	0	0	0	stim009_stimuli_original_vehicles_boats_1.png	F	0	0	0	559.504032099852	559.704029399902
135842.5	100	723	20	0	9	3	11	2	0	0	0	stim012_stimuli_original_vehicles_boats_4.png	C	0	0	0	559.904037699802	560.104043500032
135942.5	100	724	20	0	9	4	0	6	0	0	0	stim001_stimuli_original_animals_birds_1.png	G	0	0	0	560.304050999926	560.504051799886
136042.5	100	725	20	0	9	5	2	8	0	1	0	stim003_stimuli_original_animals_birds_3.png	K	0	0	0	560.704059399897	560.904050800018
136142.5	100	726	20	0	9	6	10	7	1	0	0	stim011_stimuli_original_vehicles_boats_3.png	J	0	0	0	561.104060799815	561.304058199981
136242.5	100	727	20	0	9	7	4	8	0	1	0	stim005_stimuli_original_animals_fish_1.png	K	0	0	0	561.504072099924	561.704069399973
136342.5	100	728	20	0	9	8	10	15	1	0	1	stim011_stimuli_original_vehicles_boats_3.png	Y	0	0	0	561.904081800021	562.104084499879
136442.5	100	729	20	0	9	9	15	4	0	0	0	stim016_stimuli_original_vehicles_planes_4.png	E	0	0	0	562.30409209989	562.504092499847
136542.5	100	730	20	0	9	10	7	3	0	0	0	stim008_stimuli_original_animals_fish_4.png	D	d	562.696665999945	1	562.704104200006	562.904105299851
136642.5	100	731	20	0	9	11	1	10	0	0	0	stim002_stimuli_original_animals_birds_2.png	Q	0	0	0	563.104136599926	563.304114099825
136742.5	100	732	20	0	9	12	5	9	0	0	0	stim006_stimuli_original_animals_fish_2.png	L	0	0	0	563.504126799991	563.70412270003
136842.5	100	733	20	0	9	13	10	14	0	0	0	stim011_stimuli_original_vehicles_boats_3.png	V	0	0	0	563.904137499863	564.104134100024
136942.5	100	734	20	0	9	14	9	13	0	0	0	stim010_stimuli_original_vehicles_boats_2.png	U	0	0	0	564.304144999944	564.504163699923
137042.5	100	735	20	0	9	15	6	11	0	0	0	stim007_stimuli_original_animals_fish_3.png	R	0	0	0	564.704167899908	564.904155700002
137142.5	100	736	20	0	9	16	3	12	0	0	0	stim004_stimuli_original_animals_birds_4.png	T	0	0	0	565.104168699821	565.30416719988
137242.5	100	737	20	0	9	17	14	8	0	0	0	stim015_stimuli_original_vehicles_planes_3.png	K	0	0	0	565.504180899821	565.704177599866
137342.5	100	738	20	0	9	18	8	14	0	0	0	stim009_stimuli_original_vehicles_boats_1.png	V	0	0	0	565.904189999914	566.104189399863
137442.5	100	739	20	0	9	19	12	3	0	0	0	stim013_stimuli_original_vehicles_planes_1.png	D	0	0	0	566.304198700003	566.504214099841
137542.5	100	740	20	0	9	20	11	6	0	0	0	stim012_stimuli_original_vehicles_boats_4.png	G	0	0	0	566.704224399989	566.904212299967
137642.5	100	741	20	0	9	21	13	9	0	0	0	stim014_stimuli_original_vehicles_planes_2.png	L	0	0	0	567.10422009998	567.304220299935
137742.5	100	742	20	0	9	22	14	10	0	0	0	stim015_stimuli_original_vehicles_planes_3.png	Q	0	0	0	567.504234099993	567.704230399802
137842.5	100	743	20	0	9	23	9	5	0	0	0	stim010_stimuli_original_vehicles_boats_2.png	F	0	0	0	567.904242899967	568.104243299924
137942.5	100	744	20	0	9	24	10	1	0	0	0	stim011_stimuli_original_vehicles_boats_3.png	B	0	0	0	568.304252499947	568.504261699971
138042.5	100	745	20	0	9	25	3	7	0	0	0	stim004_stimuli_original_animals_birds_4.png	J	0	0	0	568.704263499938	568.904262899887
138142.5	100	746	20	0	9	26	4	15	0	0	0	stim005_stimuli_original_animals_fish_1.png	Y	0	0	0	569.104273399804	569.304274599999
138242.5	100	747	20	0	9	27	15	10	0	1	0	stim016_stimuli_original_vehicles_planes_4.png	Q	0	0	0	569.504288599826	569.704286599997
138342.5	100	748	20	0	9	28	8	4	1	0	0	stim009_stimuli_original_vehicles_boats_1.png	E	0	0	0	569.904310500016	570.104295499856
138442.5	100	749	20	0	9	29	7	10	0	1	0	stim008_stimuli_original_animals_fish_4.png	Q	0	0	0	570.304308600025	570.504321599845
138542.5	100	750	20	0	9	30	8	2	1	0	1	stim009_stimuli_original_vehicles_boats_1.png	C	0	0	0	570.704327799845	570.904318799963
138642.5	100	751	20	0	9	31	6	0	0	0	0	stim007_stimuli_original_animals_fish_3.png	A	0	0	0	571.104326899862	571.304329399951
138742.5	100	752	20	0	9	32	2	11	0	0	0	stim003_stimuli_original_animals_birds_3.png	R	0	0	0	571.504339999985	571.704339599935
138842.5	100	753	20	0	9	33	5	8	0	0	0	stim006_stimuli_original_animals_fish_2.png	K	0	0	0	571.904349599965	572.10435069981
138942.5	100	754	20	0	9	34	0	13	0	0	0	stim001_stimuli_original_animals_birds_1.png	U	0	0	0	572.30436119996	572.504363599932
139042.5	100	755	20	0	9	35	1	12	0	0	0	stim002_stimuli_original_animals_birds_2.png	T	0	0	0	572.704370999942	572.904371399898
139784.25	100	756	21	1	7	0	13	7	0	0	0	stim014_stimuli_original_vehicles_planes_2.png	J	0	0	0	575.671144000022	575.871139799943
139884.25	100	757	21	1	7	1	2	9	0	0	0	stim003_stimuli_original_animals_birds_3.png	L	0	0	0	576.071159099927	576.271161099896
139984.25	100	758	21	1	7	2	14	1	0	0	0	stim015_stimuli_original_vehicles_planes_3.png	B	0	0	0	576.471167299896	576.671172200004
140084.25	100	759	21	1	7	3	3	12	0	0	0	stim004_stimuli_original_animals_birds_4.png	T	0	0	0	576.871187499957	577.071175499819
140184.25	100	760	21	1	7	4	10	0	0	0	0	stim011_stimuli_original_vehicles_boats_3.png	A	0	0	0	577.271188199986	577.471185399918
140284.25	100	761	21	1	7	5	6	6	0	0	0	stim007_stimuli_original_animals_fish_3.png	G	0	0	0	577.671197199961	577.871194100007
140384.25	100	762	21	1	7	6	8	15	0	1	0	stim009_stimuli_original_vehicles_boats_1.png	Y	0	0	0	578.071205799934	578.271206300007
140484.25	100	763	21	1	7	7	12	4	0	0	0	stim013_stimuli_original_vehicles_planes_1.png	E	0	0	0	578.471216399921	578.671230399981
140584.25	100	764	21	1	7	8	4	15	0	1	1	stim005_stimuli_original_animals_fish_1.png	Y	0	0	0	578.871228699805	579.071219599806
140684.25	100	765	21	1	7	9	2	11	1	0	0	stim003_stimuli_original_animals_birds_3.png	R	0	0	0	579.271225699922	579.471242700005
140784.25	100	766	21	1	7	10	5	10	0	0	0	stim006_stimuli_original_animals_fish_2.png	Q	d	579.66383789992	1	579.671235600021	579.871237199986
140884.25	100	767	21	1	7	11	2	15	1	0	0	stim003_stimuli_original_animals_birds_3.png	Y	0	0	0	580.071235599928	580.271233999869
140984.25	100	768	21	1	7	12	1	2	0	0	0	stim002_stimuli_original_animals_birds_2.png	C	0	0	0	580.471246399917	580.67124689999
141084.25	100	769	21	1	7	13	7	5	0	0	0	stim008_stimuli_original_animals_fish_4.png	F	0	0	0	580.871257700026	581.071259799879
141184.25	100	770	21	1	7	14	9	13	0	0	0	stim010_stimuli_original_vehicles_boats_2.png	U	0	0	0	581.271266999887	581.471266999841
141284.25	100	771	21	1	7	15	15	3	0	0	0	stim016_stimuli_original_vehicles_planes_4.png	D	0	0	0	581.671311799902	581.871277099941
141384.25	100	772	21	1	7	16	0	8	0	0	0	stim001_stimuli_original_animals_birds_1.png	K	0	0	0	582.071289399872	582.271287699929
141484.25	100	773	21	1	7	17	11	14	0	0	0	stim012_stimuli_original_vehicles_boats_4.png	V	0	0	0	582.471299399855	582.671301399823
141584.25	100	774	21	1	7	18	14	11	0	0	0	stim015_stimuli_original_vehicles_planes_3.png	R	0	0	0	582.871311099967	583.071311399806
141684.25	100	775	21	1	7	19	8	0	0	0	0	stim009_stimuli_original_vehicles_boats_1.png	A	0	0	0	583.271320399828	583.471320899902
141784.25	100	776	21	1	7	20	3	15	0	0	0	stim004_stimuli_original_animals_birds_4.png	Y	0	0	0	583.671342900023	583.871342999861
141884.25	100	777	21	1	7	21	13	9	0	0	0	stim014_stimuli_original_vehicles_planes_2.png	L	0	0	0	584.071355300024	584.271405200008
141984.25	100	778	21	1	7	22	5	7	0	0	0	stim006_stimuli_original_animals_fish_2.png	J	0	0	0	584.471366799902	584.67136909999
142084.25	100	779	21	1	7	23	2	1	0	0	0	stim003_stimuli_original_animals_birds_3.png	B	0	0	0	584.871407099999	585.071365899872
142184.25	100	780	21	1	7	24	15	2	0	1	0	stim016_stimuli_original_vehicles_planes_4.png	C	0	0	0	585.271373800002	585.471377399983
142284.25	100	781	21	1	7	25	10	5	0	0	0	stim011_stimuli_original_vehicles_boats_3.png	F	0	0	0	585.671400299994	585.87141929986
142384.25	100	782	21	1	7	26	11	2	0	1	1	stim012_stimuli_original_vehicles_boats_4.png	C	0	0	0	586.071412199875	586.271407899912
142484.25	100	783	21	1	7	27	15	4	1	0	0	stim016_stimuli_original_vehicles_planes_4.png	E	0	0	0	586.471419199836	586.671418899903
142584.25	100	784	21	1	7	28	4	12	0	0	0	stim005_stimuli_original_animals_fish_1.png	T	0	0	0	586.871453800006	587.071428699885
142684.25	100	785	21	1	7	29	15	8	1	0	0	stim016_stimuli_original_vehicles_planes_4.png	K	0	0	0	587.271440099925	587.471442600014
142784.25	100	786	21	1	7	30	6	6	0	0	0	stim007_stimuli_original_animals_fish_3.png	G	0	0	0	587.671455599833	587.87144989986
142884.25	100	787	21	1	7	31	0	10	0	0	0	stim001_stimuli_original_animals_birds_1.png	Q	0	0	0	588.071450399933	588.271449199878
142984.25	100	788	21	1	7	32	12	3	0	0	0	stim013_stimuli_original_vehicles_planes_1.png	D	0	0	0	588.471460300032	588.67147309985
143084.25	100	789	21	1	7	33	1	14	0	0	0	stim002_stimuli_original_animals_birds_2.png	V	0	0	0	588.871482399991	589.071475399891
143184.25	100	790	21	1	7	34	9	2	0	0	0	stim010_stimuli_original_vehicles_boats_2.png	C	0	0	0	589.271480999887	589.471498999977
143284.25	100	791	21	1	7	35	7	13	0	0	0	stim008_stimuli_original_animals_fish_4.png	U	0	0	0	589.671495999908	589.871493599843
146022	100	792	22	0	26	0	15	11	0	0	0	stim016_stimuli_original_vehicles_planes_4.png	R	0	0	0	600.62180209998	600.821800799808
146122	100	793	22	0	26	1	11	8	0	0	0	stim012_stimuli_original_vehicles_boats_4.png	K	0	0	0	601.021808499936	601.221798999934
146222	100	794	22	0	26	2	14	13	0	0	0	stim015_stimuli_original_vehicles_planes_3.png	U	0	0	0	601.421809399966	601.621809099801
146322	100	795	22	0	26	3	12	3	0	0	0	stim013_stimuli_original_vehicles_planes_1.png	D	0	0	0	601.821820099838	602.021818900015
