onset	duration	eventnumber	sequencenumber	condition	streamnumber	stimnumber	objectstimnumber	letterstimnumber	objecttarget	lettertarget	is2back	objectstim	letterstim	response	rt	correct	time_stimon	time_stimoff
4773.75	100	0	0	1	25	0	3	3	0	0	0	stim004_stimuli_original_animals_birds_4.png	D	0	0	0	52.1370357000269	52.3370311000617
4873.75	100	1	0	1	25	1	11	5	0	0	0	stim012_stimuli_original_vehicles_boats_4.png	F	0	0	0	52.5373251000419	52.7370462000836
4973.75	100	2	0	1	25	2	4	10	0	0	0	stim005_stimuli_original_animals_fish_1.png	Q	0	0	0	52.9370533000911	53.1370520000346
5073.75	100	3	0	1	25	3	8	15	0	0	0	stim009_stimuli_original_vehicles_boats_1.png	Y	0	0	0	53.3370638000779	53.5370618000161
5173.75	100	4	0	1	25	4	0	0	0	0	0	stim001_stimuli_original_animals_birds_1.png	A	0	0	0	53.7370765000815	53.9370739000151
5273.75	100	5	0	1	25	5	9	6	1	0	0	stim010_stimuli_original_vehicles_boats_2.png	G	0	0	0	54.1370843000477	54.3370849000057
5373.75	100	6	0	1	25	6	7	14	0	0	0	stim008_stimuli_original_animals_fish_4.png	V	0	0	0	54.5370960000437	54.7370940000983
5473.75	100	7	0	1	25	7	9	11	1	0	0	stim010_stimuli_original_vehicles_boats_2.png	R	0	0	0	54.9371062000282	55.1371066001011
5573.75	100	8	0	1	25	8	2	2	0	0	0	stim003_stimuli_original_animals_birds_3.png	C	0	0	0	55.3371189000318	55.5371164000826
5673.75	100	9	0	1	25	9	5	9	0	0	0	stim006_stimuli_original_animals_fish_2.png	L	0	0	0	55.7371295000194	55.9371287000831
5773.75	100	10	0	1	25	10	10	12	0	0	0	stim011_stimuli_original_vehicles_boats_3.png	T	0	0	0	56.137137999991	56.3371387000661
5873.75	100	11	0	1	25	11	9	8	0	0	0	stim010_stimuli_original_vehicles_boats_2.png	K	0	0	0	56.5371496999869	56.7371489000507
5973.75	100	12	0	1	25	12	13	11	0	1	0	stim014_stimuli_original_vehicles_planes_2.png	R	0	0	0	56.9371612000978	57.1371603000443
6073.75	100	13	0	1	25	13	1	4	0	0	0	stim002_stimuli_original_animals_birds_2.png	E	0	0	0	57.3371699000709	57.5371704000281
6173.75	100	14	0	1	25	14	12	11	0	1	1	stim013_stimuli_original_vehicles_planes_1.png	R	0	0	0	57.7371818000684	57.9373240000568
6273.75	100	15	0	1	25	15	14	13	0	0	0	stim015_stimuli_original_vehicles_planes_3.png	U	0	0	0	58.1371959000826	58.3371929000132
6373.75	100	16	0	1	25	16	15	1	0	0	0	stim016_stimuli_original_vehicles_planes_4.png	B	0	0	0	58.5372040000511	58.7372013001004
6473.75	100	17	0	1	25	17	6	7	0	0	0	stim007_stimuli_original_animals_fish_3.png	J	0	0	0	58.9372183000669	59.1372140999883
6573.75	100	18	0	1	25	18	7	6	0	0	0	stim008_stimuli_original_animals_fish_4.png	G	0	0	0	59.337224900024	59.5372237000847
6673.75	100	19	0	1	25	19	1	15	0	0	0	stim002_stimuli_original_animals_birds_2.png	Y	0	0	0	59.7372353000101	59.9372346000746
6773.75	100	20	0	1	25	20	13	14	0	0	0	stim014_stimuli_original_vehicles_planes_2.png	V	0	0	0	60.137247000006	60.3372458000667
6873.75	100	21	0	1	25	21	11	12	1	0	0	stim012_stimuli_original_vehicles_boats_4.png	T	0	0	0	60.5372572999913	60.7372559000505
6973.75	100	22	0	1	25	22	4	1	0	0	0	stim005_stimuli_original_animals_fish_1.png	B	0	0	0	60.9372677000938	61.1372689000564
7073.75	100	23	0	1	25	23	11	13	1	0	0	stim012_stimuli_original_vehicles_boats_4.png	U	0	0	0	61.3372788000852	61.5372765000211
7173.75	100	24	0	1	25	24	8	9	0	0	0	stim009_stimuli_original_vehicles_boats_1.png	L	0	0	0	61.7372883000644	61.9372767000459
7273.75	100	25	0	1	25	25	12	10	0	0	0	stim013_stimuli_original_vehicles_planes_1.png	Q	0	0	0	62.1373000000603	62.3372988000046
7373.75	100	26	0	1	25	26	9	5	0	0	0	stim010_stimuli_original_vehicles_boats_2.png	F	0	0	0	62.5373099000426	62.7373093999922
7473.75	100	27	0	1	25	27	2	2	0	0	0	stim003_stimuli_original_animals_birds_3.png	C	0	0	0	62.9373213000363	63.1373204000993
7573.75	100	28	0	1	25	28	11	9	0	1	0	stim012_stimuli_original_vehicles_boats_4.png	L	0	0	0	63.3373365000589	63.5373337999918
7673.75	100	29	0	1	25	29	14	7	0	0	0	stim015_stimuli_original_vehicles_planes_3.png	J	0	0	0	63.7373429000145	63.9373416000744
7773.75	100	30	0	1	25	30	6	9	0	1	1	stim007_stimuli_original_animals_fish_3.png	L	0	0	0	64.1373533000005	64.3373523000628
7873.75	100	31	0	1	25	31	0	0	0	0	0	stim001_stimuli_original_animals_birds_1.png	A	0	0	0	64.5373642999912	64.7373633000534
7973.75	100	32	0	1	25	32	15	8	0	0	0	stim016_stimuli_original_vehicles_planes_4.png	K	s	64.9299069000408	1	64.9373767999932	65.1373740000417
8073.75	100	33	0	1	25	33	10	4	0	0	0	stim011_stimuli_original_vehicles_boats_3.png	E	0	0	0	65.3373842000728	65.5373846000293
8173.75	100	34	0	1	25	34	5	11	0	0	0	stim006_stimuli_original_animals_fish_2.png	R	0	0	0	65.7373943000566	65.9373995000497
8273.75	100	35	0	1	25	35	3	3	0	0	0	stim004_stimuli_original_animals_birds_4.png	D	0	0	0	66.1374072000617	66.3374059000053
12453.25	100	36	1	0	5	0	9	14	0	0	0	stim010_stimuli_original_vehicles_boats_2.png	V	0	0	0	82.8545540000778	83.0545361000113
12553.25	100	37	1	0	5	1	6	11	0	0	0	stim007_stimuli_original_animals_fish_3.png	R	0	0	0	83.254557600012	83.4545607999898
12653.25	100	38	1	0	5	2	1	10	0	0	0	stim002_stimuli_original_animals_birds_2.png	Q	0	0	0	83.6545601000544	83.8545696000801
12753.25	100	39	1	0	5	3	14	13	0	0	0	stim015_stimuli_original_vehicles_planes_3.png	U	0	0	0	84.0545802999986	84.2545809000731
12853.25	100	40	1	0	5	4	4	5	0	0	0	stim005_stimuli_original_animals_fish_1.png	F	0	0	0	84.454590999987	84.6545759000583
12953.25	100	41	1	0	5	5	3	0	0	1	0	stim004_stimuli_original_animals_birds_4.png	A	0	0	0	84.8546030001016	85.0546050000703
13053.25	100	42	1	0	5	6	15	12	0	0	0	stim016_stimuli_original_vehicles_planes_4.png	T	0	0	0	85.2546167999972	85.454616400064
13153.25	100	43	1	0	5	7	7	0	0	1	0	stim008_stimuli_original_animals_fish_4.png	A	0	0	0	85.6546225000639	85.8546204000013
13253.25	100	44	1	0	5	8	2	15	0	0	0	stim003_stimuli_original_animals_birds_3.png	Y	0	0	0	86.0546356000705	86.2546360000269
13353.25	100	45	1	0	5	9	3	2	1	0	0	stim004_stimuli_original_animals_birds_4.png	C	0	0	0	86.4546452000504	86.6546462000115
13453.25	100	46	1	0	5	10	11	4	0	0	0	stim012_stimuli_original_vehicles_boats_4.png	E	0	0	0	86.854660400073	87.0546580000082
13553.25	100	47	1	0	5	11	3	8	1	0	1	stim004_stimuli_original_animals_birds_4.png	K	0	0	0	87.2546701000538	87.4546652000863
13653.25	100	48	1	0	5	12	0	6	0	0	0	stim001_stimuli_original_animals_birds_1.png	G	0	0	0	87.654672200093	87.8546653999947
13753.25	100	49	1	0	5	13	13	1	0	0	0	stim014_stimuli_original_vehicles_planes_2.png	B	0	0	0	88.0546883000061	88.2547098000068
13853.25	100	50	1	0	5	14	8	9	0	0	0	stim009_stimuli_original_vehicles_boats_1.png	L	0	0	0	88.4547010000097	88.6546968000475
13953.25	100	51	1	0	5	15	10	7	0	0	0	stim011_stimuli_original_vehicles_boats_3.png	J	0	0	0	88.8547105999896	89.0547097000526
14053.25	100	52	1	0	5	16	5	3	0	0	0	stim006_stimuli_original_animals_fish_2.png	D	0	0	0	89.2547242000001	89.4547218000516
14153.25	100	53	1	0	5	17	12	0	0	0	0	stim013_stimuli_original_vehicles_planes_1.png	A	0	0	0	89.6547327000881	89.8547332000453
14253.25	100	54	1	0	5	18	0	12	0	0	0	stim001_stimuli_original_animals_birds_1.png	T	0	0	0	90.0547721000621	90.2547406000085
14353.25	100	55	1	0	5	19	3	5	0	0	0	stim004_stimuli_original_animals_birds_4.png	F	0	0	0	90.4547505000373	90.6547516999999
14453.25	100	56	1	0	5	20	7	10	0	0	0	stim008_stimuli_original_animals_fish_4.png	Q	0	0	0	90.854726599995	91.054762499989
14553.25	100	57	1	0	5	21	9	8	0	0	0	stim010_stimuli_original_vehicles_boats_2.png	K	0	0	0	91.2547739000292	91.4547765000025
14653.25	100	58	1	0	5	22	1	13	0	0	0	stim002_stimuli_original_animals_birds_2.png	U	0	0	0	91.6547871000366	91.8547874999931
14753.25	100	59	1	0	5	23	6	0	0	0	0	stim007_stimuli_original_animals_fish_3.png	A	0	0	0	92.0547972000204	92.2547938000644
14853.25	100	60	1	0	5	24	8	3	0	1	0	stim009_stimuli_original_vehicles_boats_1.png	D	0	0	0	92.4548072000034	92.6547939000884
14953.25	100	61	1	0	5	25	4	11	0	0	0	stim005_stimuli_original_animals_fish_1.png	R	0	0	0	92.854822400026	93.0547947000014
15053.25	100	62	1	0	5	26	2	3	0	1	0	stim003_stimuli_original_animals_birds_3.png	D	0	0	0	93.2548273000866	93.4548135000514
15153.25	100	63	1	0	5	27	15	2	0	0	0	stim016_stimuli_original_vehicles_planes_4.png	C	0	0	0	93.654840100091	93.8548377000261
15253.25	100	64	1	0	5	28	0	7	1	0	0	stim001_stimuli_original_animals_birds_1.png	J	0	0	0	94.0548493000679	94.2548491000198
15353.25	100	65	1	0	5	29	12	15	0	0	0	stim013_stimuli_original_vehicles_planes_1.png	Y	0	0	0	94.4548588000471	94.6548610000173
15453.25	100	66	1	0	5	30	0	3	1	0	1	stim001_stimuli_original_animals_birds_1.png	D	0	0	0	94.854872600059	95.054870699998
15553.25	100	67	1	0	5	31	5	4	0	0	0	stim006_stimuli_original_animals_fish_2.png	E	s	95.4466668000678	1	95.2548834000481	95.4548811001005
15653.25	100	68	1	0	5	32	13	14	0	0	0	stim014_stimuli_original_vehicles_planes_2.png	V	0	0	0	95.6548965000547	95.8548926000949
15753.25	100	69	1	0	5	33	10	1	0	0	0	stim011_stimuli_original_vehicles_boats_3.png	B	0	0	0	96.0549021000043	96.2548914999934
15853.25	100	70	1	0	5	34	11	6	0	0	0	stim012_stimuli_original_vehicles_boats_4.png	G	0	0	0	96.4549132999964	96.6549148000777
15953.25	100	71	1	0	5	35	14	9	0	0	0	stim015_stimuli_original_vehicles_planes_3.png	L	0	0	0	96.8549247999908	97.0549236000516
17503.25	100	72	2	1	31	0	4	4	0	0	0	stim005_stimuli_original_animals_fish_1.png	E	0	0	0	103.055097900098	103.255089899991
17603.25	100	73	2	1	31	1	1	14	0	0	0	stim002_stimuli_original_animals_birds_2.png	V	0	0	0	103.455103400047	103.655104200006
17703.25	100	74	2	1	31	2	8	3	0	0	0	stim009_stimuli_original_vehicles_boats_1.png	D	0	0	0	103.855113200028	104.055112300091
17803.25	100	75	2	1	31	3	12	12	0	0	0	stim013_stimuli_original_vehicles_planes_1.png	T	0	0	0	104.255126600037	104.455122000072
17903.25	100	76	2	1	31	4	11	10	0	0	0	stim012_stimuli_original_vehicles_boats_4.png	Q	0	0	0	104.655133799999	104.855133200064
18003.25	100	77	2	1	31	5	10	6	0	0	0	stim011_stimuli_original_vehicles_boats_3.png	G	0	0	0	105.055147100007	105.255149300094
18103.25	100	78	2	1	31	6	13	8	0	0	0	stim014_stimuli_original_vehicles_planes_2.png	K	0	0	0	105.455155300093	105.655160200084
18203.25	100	79	2	1	31	7	14	1	0	0	0	stim015_stimuli_original_vehicles_planes_3.png	B	0	0	0	105.855170199997	106.055165000027
18303.25	100	80	2	1	31	8	7	2	1	0	0	stim008_stimuli_original_animals_fish_4.png	C	0	0	0	106.255162200076	106.455178800039
18403.25	100	81	2	1	31	9	15	7	0	0	0	stim016_stimuli_original_vehicles_planes_4.png	J	0	0	0	106.65519030008	106.855177900055
18503.25	100	82	2	1	31	10	7	10	1	1	0	stim008_stimuli_original_animals_fish_4.png	Q	s	107.246993300039	0	107.055200900068	107.255202700035
18603.25	100	83	2	1	31	11	0	5	0	0	0	stim001_stimuli_original_animals_birds_1.png	F	0	0	0	107.455206500017	107.655183600029
18703.25	100	84	2	1	31	12	2	10	0	1	1	stim003_stimuli_original_animals_birds_3.png	Q	0	0	0	107.855193500058	108.055192100001
18803.25	100	85	2	1	31	13	6	9	0	0	0	stim007_stimuli_original_animals_fish_3.png	L	0	0	0	108.255205900059	108.455205000006
18903.25	100	86	2	1	31	14	7	15	0	0	0	stim008_stimuli_original_animals_fish_4.png	Y	0	0	0	108.655216500047	108.855238000047
19003.25	100	87	2	1	31	15	9	0	0	0	0	stim010_stimuli_original_vehicles_boats_2.png	A	0	0	0	109.055226000026	109.255225400091
19103.25	100	88	2	1	31	16	5	11	0	0	0	stim006_stimuli_original_animals_fish_2.png	R	0	0	0	109.455255700042	109.655235100072
19203.25	100	89	2	1	31	17	3	13	0	0	0	stim004_stimuli_original_animals_birds_4.png	U	0	0	0	109.855246599996	110.05527110002
19303.25	100	90	2	1	31	18	13	3	0	0	0	stim014_stimuli_original_vehicles_planes_2.png	D	0	0	0	110.255258599995	110.455257200054
19403.25	100	91	2	1	31	19	11	5	0	0	0	stim012_stimuli_original_vehicles_boats_4.png	F	0	0	0	110.655269999988	110.855266900035
19503.25	100	92	2	1	31	20	0	9	0	0	0	stim001_stimuli_original_animals_birds_1.png	L	0	0	0	111.055277800071	111.255278200028
19603.25	100	93	2	1	31	21	15	7	0	0	0	stim016_stimuli_original_vehicles_planes_4.png	J	0	0	0	111.455303200055	111.655289800023
19703.25	100	94	2	1	31	22	9	6	0	0	0	stim010_stimuli_original_vehicles_boats_2.png	G	0	0	0	111.855308900005	112.055312300101
19803.25	100	95	2	1	31	23	10	2	1	0	0	stim011_stimuli_original_vehicles_boats_3.png	C	0	0	0	112.255311300047	112.455309500103
19903.25	100	96	2	1	31	24	5	0	0	0	0	stim006_stimuli_original_animals_fish_2.png	A	0	0	0	112.65532260004	112.855324900011
20003.25	100	97	2	1	31	25	10	7	1	1	0	stim011_stimuli_original_vehicles_boats_3.png	J	0	0	0	113.055333000026	113.255331700086
20103.25	100	98	2	1	31	26	7	15	0	0	0	stim008_stimuli_original_animals_fish_4.png	Y	0	0	0	113.455342800007	113.655380600016
20203.25	100	99	2	1	31	27	2	7	0	1	1	stim003_stimuli_original_animals_birds_3.png	J	0	0	0	113.85535540001	114.055352900061
20303.25	100	100	2	1	31	28	1	14	0	0	0	stim002_stimuli_original_animals_birds_2.png	V	0	0	0	114.255380399991	114.455362800043
20403.25	100	101	2	1	31	29	8	13	0	0	0	stim009_stimuli_original_vehicles_boats_1.png	U	0	0	0	114.655373900081	114.855374000035
20503.25	100	102	2	1	31	30	6	10	0	0	0	stim007_stimuli_original_animals_fish_3.png	Q	0	0	0	115.05538730009	115.255385900033
20603.25	100	103	2	1	31	31	10	11	0	0	0	stim011_stimuli_original_vehicles_boats_3.png	R	0	0	0	115.455396300065	115.655395700014
20703.25	100	104	2	1	31	32	12	12	0	0	0	stim013_stimuli_original_vehicles_planes_1.png	T	0	0	0	115.855406900053	116.055410700035
20803.25	100	105	2	1	31	33	3	8	0	0	0	stim004_stimuli_original_animals_birds_4.png	K	0	0	0	116.255447300035	116.455421100021
20903.25	100	106	2	1	31	34	14	1	0	0	0	stim015_stimuli_original_vehicles_planes_3.png	B	0	0	0	116.655430000043	116.855443400098
21003.25	100	107	2	1	31	35	4	4	0	0	0	stim005_stimuli_original_animals_fish_1.png	E	0	0	0	117.055440000026	117.25544139999
22986.75	100	108	3	0	9	0	11	11	0	0	0	stim012_stimuli_original_vehicles_boats_4.png	R	0	0	0	124.989015600062	125.188994900091
23086.75	100	109	3	0	9	1	14	13	0	0	0	stim015_stimuli_original_vehicles_planes_3.png	U	0	0	0	125.389021600015	125.589019500068
23186.75	100	110	3	0	9	2	1	3	0	0	0	stim002_stimuli_original_animals_birds_2.png	D	0	0	0	125.789038700052	125.989037199994
23286.75	100	111	3	0	9	3	4	6	0	0	0	stim005_stimuli_original_animals_fish_1.png	G	0	0	0	126.189045800013	126.389052800019
23386.75	100	112	3	0	9	4	13	10	0	0	0	stim014_stimuli_original_vehicles_planes_2.png	Q	0	0	0	126.589080100064	126.789053500048
23486.75	100	113	3	0	9	5	14	15	1	0	0	stim015_stimuli_original_vehicles_planes_3.png	Y	0	0	0	126.989088000031	127.189064600039
23586.75	100	114	3	0	9	6	6	8	0	0	0	stim007_stimuli_original_animals_fish_3.png	K	0	0	0	127.389076400083	127.589077000041
23686.75	100	115	3	0	9	7	14	1	1	0	1	stim015_stimuli_original_vehicles_planes_3.png	B	0	0	0	127.789071800071	127.989087400027
23786.75	100	116	3	0	9	8	9	5	0	1	0	stim010_stimuli_original_vehicles_boats_2.png	F	0	0	0	128.18909530004	128.389101000037
23886.75	100	117	3	0	9	9	12	4	0	0	0	stim013_stimuli_original_vehicles_planes_1.png	E	0	0	0	128.589109300054	128.789118400076
23986.75	100	118	3	0	9	10	8	5	0	1	0	stim009_stimuli_original_vehicles_boats_1.png	F	0	0	0	128.989116500015	129.189121100004
24086.75	100	119	3	0	9	11	3	2	0	0	0	stim004_stimuli_original_animals_birds_4.png	C	0	0	0	129.389129600022	129.589128600084
24186.75	100	120	3	0	9	12	7	0	0	0	0	stim008_stimuli_original_animals_fish_4.png	A	s	129.781673400081	1	129.789141100016	129.989138200064
24286.75	100	121	3	0	9	13	15	5	0	0	0	stim016_stimuli_original_vehicles_planes_4.png	F	0	0	0	130.189150699996	130.38914990006
24386.75	100	122	3	0	9	14	10	14	0	0	0	stim011_stimuli_original_vehicles_boats_3.png	V	0	0	0	130.589162599994	130.789160300046
24486.75	100	123	3	0	9	15	0	12	0	0	0	stim001_stimuli_original_animals_birds_1.png	T	s	130.981712900102	0	130.989173300099	131.189159900066
24586.75	100	124	3	0	9	16	5	9	0	0	0	stim006_stimuli_original_animals_fish_2.png	L	0	0	0	131.389185100095	131.589182700031
24686.75	100	125	3	0	9	17	2	7	0	0	0	stim003_stimuli_original_animals_birds_3.png	J	0	0	0	131.789198200102	131.989182900055
24786.75	100	126	3	0	9	18	7	2	0	0	0	stim008_stimuli_original_animals_fish_4.png	C	0	0	0	132.189203700051	132.389202999999
24886.75	100	127	3	0	9	19	9	5	0	0	0	stim010_stimuli_original_vehicles_boats_2.png	F	0	0	0	132.58920060005	132.789216300007
24986.75	100	128	3	0	9	20	12	0	0	0	0	stim013_stimuli_original_vehicles_planes_1.png	A	0	0	0	132.989226200036	133.189223700087
25086.75	100	129	3	0	9	21	14	10	0	0	0	stim015_stimuli_original_vehicles_planes_3.png	Q	0	0	0	133.389226600062	133.589241700014
25186.75	100	130	3	0	9	22	5	15	0	0	0	stim006_stimuli_original_animals_fish_2.png	Y	0	0	0	133.789247000008	133.989235799992
25286.75	100	131	3	0	9	23	0	7	0	0	0	stim001_stimuli_original_animals_birds_1.png	J	0	0	0	134.189257599995	134.389259400079
25386.75	100	132	3	0	9	24	2	3	0	0	0	stim003_stimuli_original_animals_birds_3.png	D	0	0	0	134.589277600055	134.789268900058
25486.75	100	133	3	0	9	25	5	8	1	0	0	stim006_stimuli_original_animals_fish_2.png	K	0	0	0	134.989281599992	135.189263800043
25586.75	100	134	3	0	9	26	4	12	0	0	0	stim005_stimuli_original_animals_fish_1.png	T	0	0	0	135.389275400084	135.589273600024
25686.75	100	135	3	0	9	27	5	9	1	0	1	stim006_stimuli_original_animals_fish_2.png	L	0	0	0	135.789299100055	135.989301800029
25786.75	100	136	3	0	9	28	1	14	0	1	0	stim002_stimuli_original_animals_birds_2.png	V	0	0	0	136.189312900067	136.389312300016
25886.75	100	137	3	0	9	29	8	6	0	0	0	stim009_stimuli_original_vehicles_boats_1.png	G	0	0	0	136.58934080007	136.789322700002
25986.75	100	138	3	0	9	30	15	14	0	1	0	stim016_stimuli_original_vehicles_planes_4.png	V	0	0	0	136.989334200043	137.189333499991
26086.75	100	139	3	0	9	31	10	13	0	0	0	stim011_stimuli_original_vehicles_boats_3.png	U	s	137.58111420006	1	137.389329300029	137.589346699999
26186.75	100	140	3	0	9	32	6	4	0	0	0	stim007_stimuli_original_animals_fish_3.png	E	0	0	0	137.789332700078	137.989352900069
26286.75	100	141	3	0	9	33	3	1	0	0	0	stim004_stimuli_original_animals_birds_4.png	B	0	0	0	138.189340300043	138.389339899994
26386.75	100	142	3	0	9	34	13	14	0	0	0	stim014_stimuli_original_vehicles_planes_2.png	V	0	0	0	138.589349700022	138.789348500082
26486.75	100	143	3	0	9	35	11	11	0	0	0	stim012_stimuli_original_vehicles_boats_4.png	R	s	139.181147600058	0	138.989360600011	139.18936180009
27036.75	100	144	4	1	39	0	5	1	0	0	0	stim006_stimuli_original_animals_fish_2.png	B	0	0	0	141.189462000038	141.389426300069
27136.75	100	145	4	1	39	1	8	15	0	0	0	stim009_stimuli_original_vehicles_boats_1.png	Y	0	0	0	141.589457400027	141.789443199988
27236.75	100	146	4	1	39	2	14	13	0	0	0	stim015_stimuli_original_vehicles_planes_3.png	U	0	0	0	141.989461800084	142.189465900068
27336.75	100	147	4	1	39	3	2	12	0	0	0	stim003_stimuli_original_animals_birds_3.png	T	0	0	0	142.389480000013	142.589479300077
27436.75	100	148	4	1	39	4	3	3	0	0	0	stim004_stimuli_original_animals_birds_4.png	D	0	0	0	142.78949320002	142.98948930006
27536.75	100	149	4	1	39	5	0	4	0	0	0	stim001_stimuli_original_animals_birds_1.png	E	0	0	0	143.189501399989	143.389499000041
27636.75	100	150	4	1	39	6	4	2	0	0	0	stim005_stimuli_original_animals_fish_1.png	C	0	0	0	143.589514899999	143.789510000031
27736.75	100	151	4	1	39	7	13	14	0	0	0	stim014_stimuli_original_vehicles_planes_2.png	V	0	0	0	143.989547300036	144.189520100015
27836.75	100	152	4	1	39	8	0	11	1	0	0	stim001_stimuli_original_animals_birds_1.png	R	0	0	0	144.389532500063	144.589535000036
27936.75	100	153	4	1	39	9	7	6	0	0	0	stim008_stimuli_original_animals_fish_4.png	G	0	0	0	144.789543200051	144.989543800009
28036.75	100	154	4	1	39	10	0	5	1	1	0	stim001_stimuli_original_animals_birds_1.png	F	s	145.182092300034	0	145.189557500067	145.389553299989
28136.75	100	155	4	1	39	11	9	10	0	0	0	stim010_stimuli_original_vehicles_boats_2.png	Q	s	145.781376600033	0	145.589565300033	145.789568800014
28236.75	100	156	4	1	39	12	11	5	0	1	1	stim012_stimuli_original_vehicles_boats_4.png	F	0	0	0	145.989575300016	146.189577799989
28336.75	100	157	4	1	39	13	6	8	0	0	0	stim007_stimuli_original_animals_fish_3.png	K	0	0	0	146.389584799996	146.5895915
28436.75	100	158	4	1	39	14	1	9	0	0	0	stim002_stimuli_original_animals_birds_2.png	L	0	0	0	146.789598100004	146.989594000042
28536.75	100	159	4	1	39	15	15	5	0	0	0	stim016_stimuli_original_vehicles_planes_4.png	F	0	0	0	147.189591700095	147.389608900063
28636.75	100	160	4	1	39	16	10	0	0	0	0	stim011_stimuli_original_vehicles_boats_3.png	A	0	0	0	147.589616700076	147.789620600059
28736.75	100	161	4	1	39	17	12	7	0	0	0	stim013_stimuli_original_vehicles_planes_1.png	J	0	0	0	147.989628700074	148.189630600042
28836.75	100	162	4	1	39	18	7	12	0	0	0	stim008_stimuli_original_animals_fish_4.png	T	0	0	0	148.389642200083	148.589622300002
28937	100	163	4	1	39	19	0	10	0	0	0	stim001_stimuli_original_animals_birds_1.png	Q	0	0	0	148.78965270007	148.989648999996
29037	100	164	4	1	39	20	5	15	0	0	0	stim006_stimuli_original_animals_fish_2.png	Y	0	0	0	149.189658000018	149.389652000042
29137	100	165	4	1	39	21	9	1	0	0	0	stim010_stimuli_original_vehicles_boats_2.png	B	0	0	0	149.589656500029	149.789656800102
29237	100	166	4	1	39	22	8	6	0	0	0	stim009_stimuli_original_vehicles_boats_1.png	G	0	0	0	149.989683700027	150.18968150008
29337	100	167	4	1	39	23	5	11	1	0	0	stim006_stimuli_original_animals_fish_2.png	R	0	0	0	150.389696900034	150.589693500078
29437	100	168	4	1	39	24	10	9	0	0	0	stim011_stimuli_original_vehicles_boats_3.png	L	0	0	0	150.789707500022	150.989703500061
29537	100	169	4	1	39	25	5	0	1	1	0	stim006_stimuli_original_animals_fish_2.png	A	s	151.182255199994	0	151.189714200096	151.389703900088
29637	100	170	4	1	39	26	6	7	0	0	0	stim007_stimuli_original_animals_fish_3.png	J	0	0	0	151.58972430008	151.78972390003
29737	100	171	4	1	39	27	11	0	0	1	1	stim012_stimuli_original_vehicles_boats_4.png	A	0	0	0	151.989744200022	152.189733600011
29837	100	172	4	1	39	28	14	13	0	0	0	stim015_stimuli_original_vehicles_planes_3.png	U	0	0	0	152.38974610006	152.589740700088
29937	100	173	4	1	39	29	2	4	0	0	0	stim003_stimuli_original_animals_birds_3.png	E	0	0	0	152.789746500086	152.989757700008
30037	100	174	4	1	39	30	4	0	0	0	0	stim005_stimuli_original_animals_fish_1.png	A	0	0	0	153.189766900032	153.389767899993
30137	100	175	4	1	39	31	3	3	0	0	0	stim004_stimuli_original_animals_birds_4.png	D	0	0	0	153.589780800045	153.789776900085
30237	100	176	4	1	39	32	12	2	0	0	0	stim013_stimuli_original_vehicles_planes_1.png	C	0	0	0	153.989809600054	154.189793800004
30337	100	177	4	1	39	33	13	14	0	0	0	stim014_stimuli_original_vehicles_planes_2.png	V	0	0	0	154.389798799995	154.589800200076
30437	100	178	4	1	39	34	15	8	0	0	0	stim016_stimuli_original_vehicles_planes_4.png	K	0	0	0	154.78981300001	154.989811500069
30537	100	179	4	1	39	35	1	5	0	0	0	stim002_stimuli_original_animals_birds_2.png	F	0	0	0	155.189828200033	155.389821200049
32249.5	100	180	5	0	22	0	2	0	0	0	0	stim003_stimuli_original_animals_birds_3.png	A	0	0	0	162.040010099998	162.240006400039
32349.5	100	181	5	0	22	1	14	13	0	0	0	stim015_stimuli_original_vehicles_planes_3.png	U	0	0	0	162.440015400061	162.640017100028
32449.5	100	182	5	0	22	2	6	4	0	0	0	stim007_stimuli_original_animals_fish_3.png	E	0	0	0	162.840033199987	163.040027500014
32549.5	100	183	5	0	22	3	1	7	0	0	0	stim002_stimuli_original_animals_birds_2.png	J	0	0	0	163.240044200094	163.440038500004
32649.5	100	184	5	0	22	4	3	6	1	0	0	stim004_stimuli_original_animals_birds_4.png	G	0	0	0	163.640052900068	163.840051200008
32749.5	100	185	5	0	22	5	7	3	0	0	0	stim008_stimuli_original_animals_fish_4.png	D	0	0	0	164.040059200022	164.240045899991
32849.5	100	186	5	0	22	6	3	10	1	1	1	stim004_stimuli_original_animals_birds_4.png	Q	0	0	0	164.440071500023	164.640068700071
32949.5	100	187	5	0	22	7	5	15	0	0	0	stim006_stimuli_original_animals_fish_2.png	Y	0	0	0	164.840084000025	165.040082300082
33049.5	100	188	5	0	22	8	9	10	0	1	0	stim010_stimuli_original_vehicles_boats_2.png	Q	0	0	0	165.240092399996	165.440092700068
33149.5	100	189	5	0	22	9	13	11	0	0	0	stim014_stimuli_original_vehicles_planes_2.png	R	0	0	0	165.640101600089	165.840103700059
33249.5	100	190	5	0	22	10	3	8	0	0	0	stim004_stimuli_original_animals_birds_4.png	K	0	0	0	166.040115899988	166.240113600041
33349.5	100	191	5	0	22	11	11	10	0	0	0	stim012_stimuli_original_vehicles_boats_4.png	Q	0	0	0	166.440122500062	166.640107900021
33449.5	100	192	5	0	22	12	12	14	0	0	0	stim013_stimuli_original_vehicles_planes_1.png	V	0	0	0	166.840139400098	167.040135000017
33549.5	100	193	5	0	22	13	8	9	0	0	0	stim009_stimuli_original_vehicles_boats_1.png	L	0	0	0	167.240147500066	167.440131300013
33649.5	100	194	5	0	22	14	15	2	0	0	0	stim016_stimuli_original_vehicles_planes_4.png	C	0	0	0	167.640147000086	167.840157300001
33749.5	100	195	5	0	22	15	0	12	0	0	0	stim001_stimuli_original_animals_birds_1.png	T	0	0	0	168.040169400047	168.240164800081
33849.5	100	196	5	0	22	16	4	1	0	0	0	stim005_stimuli_original_animals_fish_1.png	B	0	0	0	168.440163000021	168.640176600078
33949.5	100	197	5	0	22	17	10	5	0	0	0	stim011_stimuli_original_vehicles_boats_3.png	F	0	0	0	168.840186799993	169.04017719999
34049.5	100	198	5	0	22	18	5	10	0	0	0	stim006_stimuli_original_animals_fish_2.png	Q	0	0	0	169.240200500004	169.44019740005
34149.5	100	199	5	0	22	19	1	4	0	0	0	stim002_stimuli_original_animals_birds_2.png	E	0	0	0	169.640208200086	169.840209000045
34249.5	100	200	5	0	22	20	12	0	0	0	0	stim013_stimuli_original_vehicles_planes_1.png	A	0	0	0	170.040220200084	170.240218500025
34349.5	100	201	5	0	22	21	2	15	0	0	0	stim003_stimuli_original_animals_birds_3.png	Y	0	0	0	170.440233600093	170.640232900041
34449.5	100	202	5	0	22	22	9	8	0	0	0	stim010_stimuli_original_vehicles_boats_2.png	K	0	0	0	170.840243300074	171.040256500011
34549.5	100	203	5	0	22	23	14	12	0	0	0	stim015_stimuli_original_vehicles_planes_3.png	T	0	0	0	171.240244100103	171.440252500004
34649.5	100	204	5	0	22	24	10	11	0	0	0	stim011_stimuli_original_vehicles_boats_3.png	R	0	0	0	171.640263200039	171.840265800012
34749.5	100	205	5	0	22	25	8	3	0	0	0	stim009_stimuli_original_vehicles_boats_1.png	D	0	0	0	172.040274400031	172.240275299991
34849.5	100	206	5	0	22	26	11	13	0	0	0	stim012_stimuli_original_vehicles_boats_4.png	U	0	0	0	172.44028380001	172.640284400084
34949.5	100	207	5	0	22	27	10	9	1	0	0	stim011_stimuli_original_vehicles_boats_3.png	L	0	0	0	172.840297900024	173.04029610008
35049.5	100	208	5	0	22	28	15	5	0	0	0	stim016_stimuli_original_vehicles_planes_4.png	F	0	0	0	173.240309700021	173.440308000077
35149.5	100	209	5	0	22	29	10	3	1	1	1	stim011_stimuli_original_vehicles_boats_3.png	D	0	0	0	173.640317499987	173.840311800013
35249.5	100	210	5	0	22	30	3	7	0	0	0	stim004_stimuli_original_animals_birds_4.png	J	0	0	0	174.040330999997	174.240326300031
35349.5	100	211	5	0	22	31	6	3	0	1	0	stim007_stimuli_original_animals_fish_3.png	D	0	0	0	174.440338000073	174.640339300036
35449.5	100	212	5	0	22	32	7	1	0	0	0	stim008_stimuli_original_animals_fish_4.png	B	0	0	0	174.840349200065	175.040348600014
35549.5	100	213	5	0	22	33	4	6	0	0	0	stim005_stimuli_original_animals_fish_1.png	G	0	0	0	175.240361500066	175.440359200002
35649.5	100	214	5	0	22	34	13	14	0	0	0	stim014_stimuli_original_vehicles_planes_2.png	V	0	0	0	175.640380099998	175.840370099992
35749.5	100	215	5	0	22	35	0	2	0	0	0	stim001_stimuli_original_animals_birds_1.png	C	0	0	0	176.040385900065	176.240395700093
37612	100	216	6	1	3	0	14	10	0	0	0	stim015_stimuli_original_vehicles_planes_3.png	Q	0	0	0	183.49056210008	183.690555900102
37712	100	217	6	1	3	1	2	9	0	0	0	stim003_stimuli_original_animals_birds_3.png	L	0	0	0	183.89056780003	184.090568399988
37812	100	218	6	1	3	2	5	13	0	0	0	stim006_stimuli_original_animals_fish_2.png	U	0	0	0	184.290577700012	184.490623200079
37912	100	219	6	1	3	3	3	2	0	0	0	stim004_stimuli_original_animals_birds_4.png	C	0	0	0	184.690587599995	184.890601100051
38012	100	220	6	1	3	4	11	11	0	0	0	stim012_stimuli_original_vehicles_boats_4.png	R	0	0	0	185.090597700095	185.290599100059
38112	100	221	6	1	3	5	8	14	0	0	0	stim009_stimuli_original_vehicles_boats_1.png	V	0	0	0	185.490610500099	185.690609100042
38212	100	222	6	1	3	6	15	8	0	0	0	stim016_stimuli_original_vehicles_planes_4.png	K	0	0	0	185.890619100071	186.090619700029
38312	100	223	6	1	3	7	6	7	0	0	0	stim007_stimuli_original_animals_fish_3.png	J	0	0	0	186.290633300086	186.49063070002
38412	100	224	6	1	3	8	12	3	0	0	0	stim013_stimuli_original_vehicles_planes_1.png	D	0	0	0	186.690665600006	186.890644800034
38512	100	225	6	1	3	9	3	12	1	0	0	stim004_stimuli_original_animals_birds_4.png	T	0	0	0	187.09068090003	187.290654000011
38612	100	226	6	1	3	10	4	8	0	1	0	stim005_stimuli_original_animals_fish_1.png	K	0	0	0	187.49066520005	187.690679599997
38712	100	227	6	1	3	11	3	1	1	0	0	stim004_stimuli_original_animals_birds_4.png	B	0	0	0	187.890682400088	188.090675299987
38812	100	228	6	1	3	12	1	8	0	1	1	stim002_stimuli_original_animals_birds_2.png	K	0	0	0	188.290708100074	188.490683800075
38912	100	229	6	1	3	13	10	0	0	0	0	stim011_stimuli_original_vehicles_boats_3.png	A	0	0	0	188.6907238001	188.890708700055
39012	100	230	6	1	3	14	7	6	0	0	0	stim008_stimuli_original_animals_fish_4.png	G	0	0	0	189.090719100088	189.290710400091
39112	100	231	6	1	3	15	0	15	0	0	0	stim001_stimuli_original_animals_birds_1.png	Y	0	0	0	189.490718699992	189.690734300064
39212	100	232	6	1	3	16	9	5	0	0	0	stim010_stimuli_original_vehicles_boats_2.png	F	0	0	0	189.890728200087	190.090727600036
39312.25	100	233	6	1	3	17	13	4	0	0	0	stim014_stimuli_original_vehicles_planes_2.png	E	0	0	0	190.290756400093	190.490738200024
39412.25	100	234	6	1	3	18	4	13	0	0	0	stim005_stimuli_original_animals_fish_1.png	U	0	0	0	190.690749900066	190.890748400008
39512.25	100	235	6	1	3	19	5	9	0	0	0	stim006_stimuli_original_animals_fish_2.png	L	0	0	0	191.090762100066	191.290758899995
39612.25	100	236	6	1	3	20	15	0	0	0	0	stim016_stimuli_original_vehicles_planes_4.png	A	0	0	0	191.490771500045	191.690770799993
39712.25	100	237	6	1	3	21	6	7	0	0	0	stim007_stimuli_original_animals_fish_3.png	J	0	0	0	191.89078310004	192.090780400089
39812.25	100	238	6	1	3	22	0	10	0	0	0	stim001_stimuli_original_animals_birds_1.png	Q	0	0	0	192.290806000005	192.490792200086
39912.25	100	239	6	1	3	23	8	1	1	0	0	stim009_stimuli_original_vehicles_boats_1.png	B	0	0	0	192.690806400031	192.890813900041
40012.25	100	240	6	1	3	24	1	3	0	1	0	stim002_stimuli_original_animals_birds_2.png	D	0	0	0	193.090815700009	193.29081590008
40112.25	100	241	6	1	3	25	8	4	1	0	0	stim009_stimuli_original_vehicles_boats_1.png	E	0	0	0	193.490825299989	193.690826700069
40212.25	100	242	6	1	3	26	12	3	0	1	1	stim013_stimuli_original_vehicles_planes_1.png	D	0	0	0	193.890835900092	194.090835000039
40312.25	100	243	6	1	3	27	3	12	0	0	0	stim004_stimuli_original_animals_birds_4.png	T	0	0	0	194.290846700082	194.490879700053
40412.25	100	244	6	1	3	28	7	6	0	0	0	stim008_stimuli_original_animals_fish_4.png	G	0	0	0	194.690857900074	194.890857900027
40512.25	100	245	6	1	3	29	8	15	0	0	0	stim009_stimuli_original_vehicles_boats_1.png	Y	0	0	0	195.090888700099	195.290867200005
40612.25	100	246	6	1	3	30	14	8	0	0	0	stim015_stimuli_original_vehicles_planes_3.png	K	0	0	0	195.490882000071	195.690881100018
40712.25	100	247	6	1	3	31	11	11	0	0	0	stim012_stimuli_original_vehicles_boats_4.png	R	0	0	0	195.890889100032	196.090889499988
40812.25	100	248	6	1	3	32	2	3	0	0	0	stim003_stimuli_original_animals_birds_3.png	D	0	0	0	196.290901200031	196.49090189999
40912.25	100	249	6	1	3	33	13	5	0	0	0	stim014_stimuli_original_vehicles_planes_2.png	F	0	0	0	196.690914500039	196.890911400085
41012.25	100	250	6	1	3	34	9	2	0	0	0	stim010_stimuli_original_vehicles_boats_2.png	C	0	0	0	197.090949300095	197.290922100074
41112.25	100	251	6	1	3	35	10	14	0	0	0	stim011_stimuli_original_vehicles_boats_3.png	V	0	0	0	197.490932799992	197.690947400057
41945.5	100	252	7	0	7	0	13	5	0	0	0	stim014_stimuli_original_vehicles_planes_2.png	F	0	0	0	200.82438190002	201.024377400056
42045.5	100	253	7	0	7	1	11	13	0	0	0	stim012_stimuli_original_vehicles_boats_4.png	U	0	0	0	201.224394400022	201.424391300068
42145.5	100	254	7	0	7	2	10	10	0	0	0	stim011_stimuli_original_vehicles_boats_3.png	Q	0	0	0	201.624405300012	201.824401300051
42245.5	100	255	7	0	7	3	4	0	0	0	0	stim005_stimuli_original_animals_fish_1.png	A	0	0	0	202.024391200044	202.224415400065
42345.5	100	256	7	0	7	4	7	14	0	0	0	stim008_stimuli_original_animals_fish_4.png	V	0	0	0	202.424426999991	202.624410100048
42445.5	100	257	7	0	7	5	3	8	0	0	0	stim004_stimuli_original_animals_birds_4.png	K	0	0	0	202.824420200079	203.024435300031
42545.5	100	258	7	0	7	6	6	3	0	0	0	stim007_stimuli_original_animals_fish_3.png	D	0	0	0	203.22445129999	203.424444000004
42645.5	100	259	7	0	7	7	11	1	1	0	0	stim012_stimuli_original_vehicles_boats_4.png	B	0	0	0	203.624457600061	203.824455399998
42745.5	100	260	7	0	7	8	1	10	0	1	0	stim002_stimuli_original_animals_birds_2.png	Q	0	0	0	204.024470900069	204.224464800092
42845.5	100	261	7	0	7	9	11	7	1	0	1	stim012_stimuli_original_vehicles_boats_4.png	J	0	0	0	204.424477900029	204.624486300047
42945.5	100	262	7	0	7	10	12	10	0	1	0	stim013_stimuli_original_vehicles_planes_1.png	Q	0	0	0	204.824492200045	205.024487900082
43045.5	100	263	7	0	7	11	2	9	0	0	0	stim003_stimuli_original_animals_birds_3.png	L	0	0	0	205.224504300044	205.424504900002
43145.5	100	264	7	0	7	12	8	4	0	0	0	stim009_stimuli_original_vehicles_boats_1.png	E	0	0	0	205.624510499998	205.824510600069
43245.5	100	265	7	0	7	13	5	15	0	0	0	stim006_stimuli_original_animals_fish_2.png	Y	0	0	0	206.024523500004	206.224510600092
43345.5	100	266	7	0	7	14	0	11	0	0	0	stim001_stimuli_original_animals_birds_1.png	R	0	0	0	206.424531400087	206.624531600042
43445.5	100	267	7	0	7	15	9	6	0	0	0	stim010_stimuli_original_vehicles_boats_2.png	G	0	0	0	206.824521200033	207.024543400039
43545.5	100	268	7	0	7	16	14	2	0	0	0	stim015_stimuli_original_vehicles_planes_3.png	C	0	0	0	207.22457020008	207.424552900018
43645.5	100	269	7	0	7	17	15	12	0	0	0	stim016_stimuli_original_vehicles_planes_4.png	T	0	0	0	207.62456450006	207.824565800023
43745.5	100	270	7	0	7	18	12	15	0	0	0	stim013_stimuli_original_vehicles_planes_1.png	Y	0	0	0	208.024574800045	208.224576000008
43845.5	100	271	7	0	7	19	2	14	0	0	0	stim003_stimuli_original_animals_birds_3.png	V	0	0	0	208.424587100046	208.624584800098
43945.5	100	272	7	0	7	20	6	9	0	0	0	stim007_stimuli_original_animals_fish_3.png	L	0	0	0	208.82459730003	209.024595800089
44045.5	100	273	7	0	7	21	11	0	0	0	0	stim012_stimuli_original_vehicles_boats_4.png	A	0	0	0	209.224613200058	209.42459509999
44145.5	100	274	7	0	7	22	15	5	0	0	0	stim016_stimuli_original_vehicles_planes_4.png	F	0	0	0	209.624617900001	209.824601700064
44245.5	100	275	7	0	7	23	4	8	0	0	0	stim005_stimuli_original_animals_fish_1.png	K	0	0	0	210.024620100041	210.224628900061
44345.5	100	276	7	0	7	24	9	2	0	0	0	stim010_stimuli_original_vehicles_boats_2.png	C	s	210.417140000034	0	210.424624200095	210.624641500064
44445.5	100	277	7	0	7	25	10	12	1	0	0	stim011_stimuli_original_vehicles_boats_3.png	T	0	0	0	210.8246523001	211.024651600048
44545.5	100	278	7	0	7	26	7	11	0	1	0	stim008_stimuli_original_animals_fish_4.png	R	0	0	0	211.224660000065	211.424663200043
44645.5	100	279	7	0	7	27	10	1	1	0	1	stim011_stimuli_original_vehicles_boats_3.png	B	0	0	0	211.624679600005	211.824671400012
44745.5	100	280	7	0	7	28	1	11	0	1	0	stim002_stimuli_original_animals_birds_2.png	R	0	0	0	212.024701200076	212.224681399995
44845.5	100	281	7	0	7	29	3	6	0	0	0	stim004_stimuli_original_animals_birds_4.png	G	0	0	0	212.424692300032	212.624691800098
44945.5	100	282	7	0	7	30	8	3	0	0	0	stim009_stimuli_original_vehicles_boats_1.png	D	0	0	0	212.824703800026	213.02470300009
45045.5	100	283	7	0	7	31	14	7	0	0	0	stim015_stimuli_original_vehicles_planes_3.png	J	0	0	0	213.22471780004	213.424714400084
45145.5	100	284	7	0	7	32	0	4	0	0	0	stim001_stimuli_original_animals_birds_1.png	E	0	0	0	213.624725500005	213.824730099994
45245.5	100	285	7	0	7	33	10	10	0	0	0	stim011_stimuli_original_vehicles_boats_3.png	Q	0	0	0	214.024737200001	214.224728700006
45345.5	100	286	7	0	7	34	13	11	0	0	0	stim014_stimuli_original_vehicles_planes_2.png	R	0	0	0	214.424747300101	214.624732900062
45445.5	100	287	7	0	7	35	5	13	0	0	0	stim006_stimuli_original_animals_fish_2.png	U	0	0	0	214.824759999989	215.024757700041
46649.75	100	288	8	1	17	0	14	2	0	0	0	stim015_stimuli_original_vehicles_planes_3.png	C	0	0	0	219.641531500034	219.841528700083
46749.75	100	289	8	1	17	1	9	3	0	0	0	stim010_stimuli_original_vehicles_boats_2.png	D	0	0	0	220.041542400024	220.241539000068
46849.75	100	290	8	1	17	2	7	4	0	0	0	stim008_stimuli_original_animals_fish_4.png	E	0	0	0	220.441562300082	220.641547200037
46949.75	100	291	8	1	17	3	8	10	0	0	0	stim009_stimuli_original_vehicles_boats_1.png	Q	0	0	0	220.841566700023	221.041572900023
47049.75	100	292	8	1	17	4	5	9	0	0	0	stim006_stimuli_original_animals_fish_2.png	L	0	0	0	221.241570700076	221.441571200034
47149.75	100	293	8	1	17	5	10	15	0	0	0	stim011_stimuli_original_vehicles_boats_3.png	Y	0	0	0	221.641581400065	221.841581000015
47249.75	100	294	8	1	17	6	12	8	0	0	0	stim013_stimuli_original_vehicles_planes_1.png	K	0	0	0	222.041593400063	222.241592900013
47349.75	100	295	8	1	17	7	2	1	0	0	0	stim003_stimuli_original_animals_birds_3.png	B	0	0	0	222.441603300045	222.64164450008
47449.75	100	296	8	1	17	8	0	5	1	0	0	stim001_stimuli_original_animals_birds_1.png	F	0	0	0	222.841614400037	223.041617100011
47549.75	100	297	8	1	17	9	11	7	0	0	0	stim012_stimuli_original_vehicles_boats_4.png	J	0	0	0	223.241639600019	223.441623900086
47649.75	100	298	8	1	17	10	0	6	1	0	0	stim001_stimuli_original_animals_birds_1.png	G	0	0	0	223.641634600004	223.841634600074
47749.75	100	299	8	1	17	11	15	4	0	1	0	stim016_stimuli_original_vehicles_planes_4.png	E	0	0	0	224.041649600025	224.241645300062
47849.75	100	300	8	1	17	12	6	0	0	0	0	stim007_stimuli_original_animals_fish_3.png	A	0	0	0	224.44165719999	224.641656800057
47949.75	100	301	8	1	17	13	13	4	0	1	1	stim014_stimuli_original_vehicles_planes_2.png	E	0	0	0	224.84166730009	225.041667600046
48049.75	100	302	8	1	17	14	0	12	0	0	0	stim001_stimuli_original_animals_birds_1.png	T	0	0	0	225.24170610006	225.441678800038
48149.75	100	303	8	1	17	15	4	11	0	0	0	stim005_stimuli_original_animals_fish_1.png	R	0	0	0	225.641692800098	225.841704900027
48249.75	100	304	8	1	17	16	3	13	0	0	0	stim004_stimuli_original_animals_birds_4.png	U	0	0	0	226.041700500064	226.241712699994
48349.75	100	305	8	1	17	17	1	14	0	0	0	stim002_stimuli_original_animals_birds_2.png	V	0	0	0	226.44171090005	226.64170919999
48449.75	100	306	8	1	17	18	14	1	0	0	0	stim015_stimuli_original_vehicles_planes_3.png	B	0	0	0	226.841722100042	227.041720900103
48549.75	100	307	8	1	17	19	13	3	0	0	0	stim014_stimuli_original_vehicles_planes_2.png	D	0	0	0	227.241731900023	227.44173359999
48649.75	100	308	8	1	17	20	11	4	0	0	0	stim012_stimuli_original_vehicles_boats_4.png	E	0	0	0	227.64174240001	227.841758700088
48749.75	100	309	8	1	17	21	12	0	0	0	0	stim013_stimuli_original_vehicles_planes_1.png	A	0	0	0	228.041753700003	228.24175330007
48849.75	100	310	8	1	17	22	4	13	1	0	0	stim005_stimuli_original_animals_fish_1.png	U	s	228.434296900057	0	228.441780199995	228.641764700064
48949.75	100	311	8	1	17	23	0	6	0	0	0	stim001_stimuli_original_animals_birds_1.png	G	0	0	0	228.841806300101	229.041802400025
49049.75	100	312	8	1	17	24	4	15	1	0	0	stim005_stimuli_original_animals_fish_1.png	Y	0	0	0	229.241811300046	229.441811600002
49149.75	100	313	8	1	17	25	6	0	0	1	0	stim007_stimuli_original_animals_fish_3.png	A	0	0	0	229.641824800055	229.841821700102
49249.75	100	314	8	1	17	26	7	11	0	0	0	stim008_stimuli_original_animals_fish_4.png	R	0	0	0	230.041813799995	230.241832900094
49349.75	100	315	8	1	17	27	5	0	0	1	1	stim006_stimuli_original_animals_fish_2.png	A	0	0	0	230.441854700097	230.641842800076
49449.75	100	316	8	1	17	28	1	2	0	0	0	stim002_stimuli_original_animals_birds_2.png	C	0	0	0	230.841856400017	231.041852800059
49550	100	317	8	1	17	29	8	12	0	0	0	stim009_stimuli_original_vehicles_boats_1.png	T	s	231.433651700034	1	231.241869300022	231.441865500063
49650	100	318	8	1	17	30	15	10	0	0	0	stim016_stimuli_original_vehicles_planes_4.png	Q	0	0	0	231.641879900009	231.841878600069
49750	100	319	8	1	17	31	9	5	0	0	0	stim010_stimuli_original_vehicles_boats_2.png	F	0	0	0	232.041884900071	232.241889100056
49850	100	320	8	1	17	32	10	8	0	0	0	stim011_stimuli_original_vehicles_boats_3.png	K	0	0	0	232.441897700075	232.641892799991
49950	100	321	8	1	17	33	4	7	0	0	0	stim005_stimuli_original_animals_fish_1.png	J	0	0	0	232.841911800089	233.041907800012
50050	100	322	8	1	17	34	3	9	0	0	0	stim004_stimuli_original_animals_birds_4.png	L	0	0	0	233.241909900098	233.441927800071
50150	100	323	8	1	17	35	2	14	0	0	0	stim003_stimuli_original_animals_birds_3.png	V	0	0	0	233.641930200043	233.841929799994
51970.75	100	324	9	0	26	0	4	15	0	0	0	stim005_stimuli_original_animals_fish_1.png	Y	0	0	0	240.925479400088	241.125435000053
52070.75	100	325	9	0	26	1	10	3	0	0	0	stim011_stimuli_original_vehicles_boats_3.png	D	0	0	0	241.325444600079	241.525444600033
52170.75	100	326	9	0	26	2	9	2	0	0	0	stim010_stimuli_original_vehicles_boats_2.png	C	0	0	0	241.725455200067	241.925476400065
52270.75	100	327	9	0	26	3	1	7	0	0	0	stim002_stimuli_original_animals_birds_2.png	J	0	0	0	242.125465100049	242.325464499998
52370.75	100	328	9	0	26	4	2	0	0	0	0	stim003_stimuli_original_animals_birds_3.png	A	0	0	0	242.525475600036	242.725476499996
52470.75	100	329	9	0	26	5	13	9	0	0	0	stim014_stimuli_original_vehicles_planes_2.png	L	0	0	0	242.925488800043	243.125488999998
52570.75	100	330	9	0	26	6	6	1	0	0	0	stim007_stimuli_original_animals_fish_3.png	B	0	0	0	243.325498100021	243.525496000075
52670.75	100	331	9	0	26	7	9	14	1	0	0	stim010_stimuli_original_vehicles_boats_2.png	V	0	0	0	243.725508200005	243.925516200019
52770.75	100	332	9	0	26	8	11	13	0	0	0	stim012_stimuli_original_vehicles_boats_4.png	U	0	0	0	244.12552110001	244.325518700061
52870.75	100	333	9	0	26	9	9	8	1	0	1	stim010_stimuli_original_vehicles_boats_2.png	K	0	0	0	244.525530599989	244.725532200071
52970.75	100	334	9	0	26	10	15	6	0	0	0	stim016_stimuli_original_vehicles_planes_4.png	G	0	0	0	244.925541400095	245.125541000045
53070.75	100	335	9	0	26	11	7	1	0	1	0	stim008_stimuli_original_animals_fish_4.png	B	0	0	0	245.325552200084	245.525550500024
53170.75	100	336	9	0	26	12	3	5	0	0	0	stim004_stimuli_original_animals_birds_4.png	F	0	0	0	245.725565600093	245.925561300013
53270.75	100	337	9	0	26	13	12	1	0	1	0	stim013_stimuli_original_vehicles_planes_1.png	B	0	0	0	246.125574500067	246.325574000017
53370.75	100	338	9	0	26	14	8	4	0	0	0	stim009_stimuli_original_vehicles_boats_1.png	E	0	0	0	246.525584900053	246.725583799998
53470.75	100	339	9	0	26	15	0	12	0	0	0	stim001_stimuli_original_animals_birds_1.png	T	0	0	0	246.925594700035	247.125595199992
53570.75	100	340	9	0	26	16	14	11	0	0	0	stim015_stimuli_original_vehicles_planes_3.png	R	0	0	0	247.325611000066	247.525607799995
53670.75	100	341	9	0	26	17	5	10	0	0	0	stim006_stimuli_original_animals_fish_2.png	Q	0	0	0	247.725615200005	247.925621600007
53770.75	100	342	9	0	26	18	10	5	0	0	0	stim011_stimuli_original_vehicles_boats_3.png	F	0	0	0	248.125628400012	248.325628100079
53870.75	100	343	9	0	26	19	11	14	0	0	0	stim012_stimuli_original_vehicles_boats_4.png	V	0	0	0	248.525639300002	248.725671200082
53970.75	100	344	9	0	26	20	12	0	0	0	0	stim013_stimuli_original_vehicles_planes_1.png	A	0	0	0	248.925651099999	249.125649200054
54070.75	100	345	9	0	26	21	4	8	0	0	0	stim005_stimuli_original_animals_fish_1.png	K	0	0	0	249.325665100012	249.525659900042
54170.75	100	346	9	0	26	22	1	12	1	0	0	stim002_stimuli_original_animals_birds_2.png	T	0	0	0	249.725670900079	249.925669100019
54270.75	100	347	9	0	26	23	5	3	0	0	0	stim006_stimuli_original_animals_fish_2.png	D	0	0	0	250.125680900062	250.325681300019
54370.75	100	348	9	0	26	24	1	7	1	0	1	stim002_stimuli_original_animals_birds_2.png	J	0	0	0	250.525693000061	250.725694000022
54470.75	100	349	9	0	26	25	6	15	0	0	0	stim007_stimuli_original_animals_fish_3.png	Y	0	0	0	250.925705200061	251.125703800004
54570.75	100	350	9	0	26	26	8	9	0	1	0	stim009_stimuli_original_vehicles_boats_1.png	L	0	0	0	251.325714300037	251.525714099989
54670.75	100	351	9	0	26	27	13	11	0	0	0	stim014_stimuli_original_vehicles_planes_2.png	R	0	0	0	251.725725700031	251.925725400099
54770.75	100	352	9	0	26	28	14	9	0	1	0	stim015_stimuli_original_vehicles_planes_3.png	L	0	0	0	252.125733399997	252.32573869999
54870.75	100	353	9	0	26	29	1	6	0	0	0	stim002_stimuli_original_animals_birds_2.png	G	0	0	0	252.525746600004	252.725744400057
54970.75	100	354	9	0	26	30	9	13	0	0	0	stim010_stimuli_original_vehicles_boats_2.png	U	0	0	0	252.9257562001	253.125756600057
55070.75	100	355	9	0	26	31	0	2	0	0	0	stim001_stimuli_original_animals_birds_1.png	C	0	0	0	253.32576580008	253.525765900034
55170.75	100	356	9	0	26	32	7	1	0	0	0	stim008_stimuli_original_animals_fish_4.png	B	0	0	0	253.72577800008	253.925778200035
55270.75	100	357	9	0	26	33	2	9	0	0	0	stim003_stimuli_original_animals_birds_3.png	L	0	0	0	254.125808000099	254.325789000024
55370.75	100	358	9	0	26	34	3	10	0	0	0	stim004_stimuli_original_animals_birds_4.png	Q	0	0	0	254.525801600073	254.725798200001
55470.75	100	359	9	0	26	35	15	4	0	0	0	stim016_stimuli_original_vehicles_planes_4.png	E	0	0	0	254.925812800066	255.125809899997
56270.75	100	360	10	1	4	0	3	14	0	0	0	stim004_stimuli_original_animals_birds_4.png	V	0	0	0	258.125899600098	258.325896600028
56370.75	100	361	10	1	4	1	4	4	0	0	0	stim005_stimuli_original_animals_fish_1.png	E	0	0	0	258.525907400064	258.725908600027
56470.75	100	362	10	1	4	2	14	13	0	0	0	stim015_stimuli_original_vehicles_planes_3.png	U	0	0	0	258.925918800058	259.125918800011
56570.75	100	363	10	1	4	3	13	11	0	0	0	stim014_stimuli_original_vehicles_planes_2.png	R	0	0	0	259.325929400045	259.525929700001
56670.75	100	364	10	1	4	4	15	1	0	0	0	stim016_stimuli_original_vehicles_planes_4.png	B	0	0	0	259.725940400036	259.925940699992
56771	100	365	10	1	4	5	3	10	1	0	0	stim004_stimuli_original_animals_birds_4.png	Q	0	0	0	260.125950100017	260.325950700091
56871	100	366	10	1	4	6	0	7	0	0	0	stim001_stimuli_original_animals_birds_1.png	J	0	0	0	260.525960200001	260.725961200078
56971	100	367	10	1	4	7	3	13	1	1	0	stim004_stimuli_original_animals_birds_4.png	U	0	0	0	260.925973900012	261.125969400047
57071	100	368	10	1	4	8	2	15	0	0	0	stim003_stimuli_original_animals_birds_3.png	Y	0	0	0	261.325981700094	261.526007000008
57171	100	369	10	1	4	9	6	13	0	1	1	stim007_stimuli_original_animals_fish_3.png	U	0	0	0	261.725995000103	261.925994100049
57271	100	370	10	1	4	10	12	6	0	0	0	stim013_stimuli_original_vehicles_planes_1.png	G	0	0	0	262.126003300073	262.326003400027
57371	100	371	10	1	4	11	9	12	0	0	0	stim010_stimuli_original_vehicles_boats_2.png	T	s	262.518573999987	1	262.526018800098	262.726016500033
57471	100	372	10	1	4	12	5	8	0	0	0	stim006_stimuli_original_animals_fish_2.png	K	0	0	0	262.926026300061	263.126026900019
57571	100	373	10	1	4	13	8	2	0	0	0	stim009_stimuli_original_vehicles_boats_1.png	C	0	0	0	263.326036200044	263.526060200064
57671	100	374	10	1	4	14	7	9	0	0	0	stim008_stimuli_original_animals_fish_4.png	L	0	0	0	263.726046800031	263.926046800101
57771	100	375	10	1	4	15	11	3	0	0	0	stim012_stimuli_original_vehicles_boats_4.png	D	0	0	0	264.126058700029	264.326066500042
57871	100	376	10	1	4	16	10	0	0	0	0	stim011_stimuli_original_vehicles_boats_3.png	A	0	0	0	264.526071000029	264.726068300079
57971	100	377	10	1	4	17	1	5	0	0	0	stim002_stimuli_original_animals_birds_2.png	F	0	0	0	264.926079099998	265.126078600064
58071	100	378	10	1	4	18	5	1	0	0	0	stim006_stimuli_original_animals_fish_2.png	B	0	0	0	265.326090899995	265.526088800048
58171	100	379	10	1	4	19	0	10	0	0	0	stim001_stimuli_original_animals_birds_1.png	Q	0	0	0	265.726104400004	265.926102100057
58271	100	380	10	1	4	20	3	11	0	0	0	stim004_stimuli_original_animals_birds_4.png	R	0	0	0	266.126113400096	266.326109800022
58371	100	381	10	1	4	21	9	7	0	0	0	stim010_stimuli_original_vehicles_boats_2.png	J	0	0	0	266.526123000076	266.726121400017
58471	100	382	10	1	4	22	2	8	0	0	0	stim003_stimuli_original_animals_birds_3.png	K	0	0	0	266.926134300069	267.126132100006
58571	100	383	10	1	4	23	8	5	0	0	0	stim009_stimuli_original_vehicles_boats_1.png	F	0	0	0	267.326143400045	267.526148600038
58671	100	384	10	1	4	24	12	9	0	0	0	stim013_stimuli_original_vehicles_planes_1.png	L	0	0	0	267.726156800054	267.926154099987
58771	100	385	10	1	4	25	6	12	0	0	0	stim007_stimuli_original_animals_fish_3.png	T	0	0	0	268.12616460002	268.326167699997
58871	100	386	10	1	4	26	13	6	1	0	0	stim014_stimuli_original_vehicles_planes_2.png	G	0	0	0	268.52617550001	268.726174400072
58971	100	387	10	1	4	27	15	2	0	0	0	stim016_stimuli_original_vehicles_planes_4.png	C	0	0	0	268.926188200014	269.126186800073
59071	100	388	10	1	4	28	13	3	1	1	0	stim014_stimuli_original_vehicles_planes_2.png	D	0	0	0	269.326197999995	269.526197200059
59171	100	389	10	1	4	29	7	0	0	0	0	stim008_stimuli_original_animals_fish_4.png	A	0	0	0	269.726208600099	269.92620820005
59271	100	390	10	1	4	30	10	3	0	1	1	stim011_stimuli_original_vehicles_boats_3.png	D	0	0	0	270.126219800091	270.326218600036
59371	100	391	10	1	4	31	1	15	0	0	0	stim002_stimuli_original_animals_birds_2.png	Y	0	0	0	270.52622920007	270.726234300062
59471	100	392	10	1	4	32	11	13	0	0	0	stim012_stimuli_original_vehicles_boats_4.png	U	0	0	0	270.926243600086	271.126240000012
59571	100	393	10	1	4	33	13	14	0	0	0	stim014_stimuli_original_vehicles_planes_2.png	V	0	0	0	271.326259599999	271.526252700016
59671	100	394	10	1	4	34	4	4	0	0	0	stim005_stimuli_original_animals_fish_1.png	E	0	0	0	271.726262100041	271.926263500005
59771	100	395	10	1	4	35	14	3	0	0	0	stim015_stimuli_original_vehicles_planes_3.png	D	0	0	0	272.126272300025	272.326273000101
60808.5	100	396	11	0	27	0	2	9	0	0	0	stim003_stimuli_original_animals_birds_3.png	L	0	0	0	276.276386799989	276.476385000045
60908.5	100	397	11	0	27	1	13	1	0	0	0	stim014_stimuli_original_vehicles_planes_2.png	B	0	0	0	276.676396700088	276.876395400031
61008.5	100	398	11	0	27	2	4	15	0	0	0	stim005_stimuli_original_animals_fish_1.png	Y	0	0	0	277.076408500085	277.276407300029
61108.5	100	399	11	0	27	3	10	6	0	0	0	stim011_stimuli_original_vehicles_boats_3.png	G	0	0	0	277.476417100057	277.676417400013
61208.5	100	400	11	0	27	4	3	10	0	0	0	stim004_stimuli_original_animals_birds_4.png	Q	0	0	0	277.876454700017	278.076428400003
61308.5	100	401	11	0	27	5	8	2	0	1	0	stim009_stimuli_original_vehicles_boats_1.png	C	0	0	0	278.276439700043	278.476451700088
61408.5	100	402	11	0	27	6	11	13	1	0	0	stim012_stimuli_original_vehicles_boats_4.png	U	0	0	0	278.676451200037	278.876449500094
61508.5	100	403	11	0	27	7	9	2	0	1	0	stim010_stimuli_original_vehicles_boats_2.png	C	0	0	0	279.07646110002	279.276460900088
61608.5	100	404	11	0	27	8	11	7	1	0	1	stim012_stimuli_original_vehicles_boats_4.png	J	0	0	0	279.476470299996	279.676471500075
61708.5	100	405	11	0	27	9	6	0	0	0	0	stim007_stimuli_original_animals_fish_3.png	A	0	0	0	279.876483900007	280.076481100055
61808.5	100	406	11	0	27	10	14	8	0	0	0	stim015_stimuli_original_vehicles_planes_3.png	K	0	0	0	280.276516400045	280.476510900073
61908.5	100	407	11	0	27	11	1	5	0	0	0	stim002_stimuli_original_animals_birds_2.png	F	0	0	0	280.676503800089	280.876502700034
62008.5	100	408	11	0	27	12	11	2	0	0	0	stim012_stimuli_original_vehicles_boats_4.png	C	0	0	0	281.076513400069	281.276521200081
62108.5	100	409	11	0	27	13	12	12	0	0	0	stim013_stimuli_original_vehicles_planes_1.png	T	0	0	0	281.476525100064	281.676524900016
62208.5	100	410	11	0	27	14	7	3	0	0	0	stim008_stimuli_original_animals_fish_4.png	D	0	0	0	281.876534600044	282.076534099993
62308.5	100	411	11	0	27	15	5	11	0	0	0	stim006_stimuli_original_animals_fish_2.png	R	0	0	0	282.276570899994	282.476543900091
62408.5	100	412	11	0	27	16	15	14	0	0	0	stim016_stimuli_original_vehicles_planes_4.png	V	0	0	0	282.676557900035	282.876556600095
62508.5	100	413	11	0	27	17	0	4	0	0	0	stim001_stimuli_original_animals_birds_1.png	E	0	0	0	283.076595599996	283.27656820009
62608.5	100	414	11	0	27	18	4	0	0	0	0	stim005_stimuli_original_animals_fish_1.png	A	0	0	0	283.476584900054	283.676598399994
62708.5	100	415	11	0	27	19	14	15	0	0	0	stim015_stimuli_original_vehicles_planes_3.png	Y	0	0	0	283.876588999992	284.076590200071
62808.5	100	416	11	0	27	20	11	5	0	0	0	stim012_stimuli_original_vehicles_boats_4.png	F	0	0	0	284.27660099999	284.476600200054
62908.5	100	417	11	0	27	21	3	7	0	0	0	stim004_stimuli_original_animals_birds_4.png	J	0	0	0	284.6766123001	284.876611700049
63008.5	100	418	11	0	27	22	12	12	0	0	0	stim013_stimuli_original_vehicles_planes_1.png	T	0	0	0	285.076622300083	285.276623700047
63108.5	100	419	11	0	27	23	2	11	0	0	0	stim003_stimuli_original_animals_birds_3.png	R	0	0	0	285.476633600076	285.676645400003
63208.5	100	420	11	0	27	24	5	1	0	0	0	stim006_stimuli_original_animals_fish_2.png	B	0	0	0	285.876644500066	286.076643500011
63308.5	100	421	11	0	27	25	8	14	0	0	0	stim009_stimuli_original_vehicles_boats_1.png	V	0	0	0	286.276667100028	286.47665550001
63408.5	100	422	11	0	27	26	0	6	0	0	0	stim001_stimuli_original_animals_birds_1.png	G	0	0	0	286.676664100029	286.8766643001
63508.5	100	423	11	0	27	27	7	11	0	1	0	stim008_stimuli_original_animals_fish_4.png	R	0	0	0	287.076676200028	287.276679600007
63608.5	100	424	11	0	27	28	2	9	1	0	0	stim003_stimuli_original_animals_birds_3.png	L	0	0	0	287.476686900016	287.676687700092
63708.5	100	425	11	0	27	29	13	11	0	1	0	stim014_stimuli_original_vehicles_planes_2.png	R	0	0	0	287.876695499988	288.076696100063
63808.5	100	426	11	0	27	30	2	8	1	0	1	stim003_stimuli_original_animals_birds_3.png	K	0	0	0	288.276717500063	288.476708200062
63908.5	100	427	11	0	27	31	10	3	0	0	0	stim011_stimuli_original_vehicles_boats_3.png	D	0	0	0	288.676718500094	288.876718600048
64008.5	100	428	11	0	27	32	6	10	0	0	0	stim007_stimuli_original_animals_fish_3.png	Q	0	0	0	289.076729900087	289.27672980004
64108.5	100	429	11	0	27	33	15	4	0	0	0	stim016_stimuli_original_vehicles_planes_4.png	E	0	0	0	289.476740500075	289.676741400035
64208.5	100	430	11	0	27	34	1	13	0	0	0	stim002_stimuli_original_animals_birds_2.png	U	0	0	0	289.876752500073	290.076750000007
64308.5	100	431	11	0	27	35	9	2	0	0	0	stim010_stimuli_original_vehicles_boats_2.png	C	0	0	0	290.276762800058	290.476791299996
68067	100	432	12	1	47	0	8	13	0	0	0	stim009_stimuli_original_vehicles_boats_1.png	U	0	0	0	305.31050240004	305.510498300078
68167	100	433	12	1	47	1	6	14	0	0	0	stim007_stimuli_original_animals_fish_3.png	V	0	0	0	305.710513600032	305.91050950007
68267	100	434	12	1	47	2	11	15	0	0	0	stim012_stimuli_original_vehicles_boats_4.png	Y	0	0	0	306.1105216	306.310521800071
68367	100	435	12	1	47	3	14	0	0	0	0	stim015_stimuli_original_vehicles_planes_3.png	A	0	0	0	306.5105339	306.710531100049
68467	100	436	12	1	47	4	7	12	0	0	0	stim008_stimuli_original_animals_fish_4.png	T	0	0	0	306.910543500097	307.110541400034
68567	100	437	12	1	47	5	2	11	0	1	0	stim003_stimuli_original_animals_birds_3.png	R	0	0	0	307.310554500087	307.510552800028
68667	100	438	12	1	47	6	3	1	0	0	0	stim004_stimuli_original_animals_birds_4.png	B	0	0	0	307.710566100082	307.910569200059
68767	100	439	12	1	47	7	9	11	0	1	1	stim010_stimuli_original_vehicles_boats_2.png	R	0	0	0	308.110576400068	308.310574500007
68867	100	440	12	1	47	8	5	4	0	0	0	stim006_stimuli_original_animals_fish_2.png	E	0	0	0	308.510585500044	308.710597800091
68967	100	441	12	1	47	9	10	8	0	0	0	stim011_stimuli_original_vehicles_boats_3.png	K	0	0	0	308.910598900053	309.110596999992
69067	100	442	12	1	47	10	14	11	1	0	0	stim015_stimuli_original_vehicles_planes_3.png	R	0	0	0	309.310609200038	309.510609699995
69167	100	443	12	1	47	11	0	6	0	0	0	stim001_stimuli_original_animals_birds_1.png	G	0	0	0	309.710619300022	309.910618000082
69267	100	444	12	1	47	12	14	10	1	0	0	stim015_stimuli_original_vehicles_planes_3.png	Q	0	0	0	310.110628399998	310.310628600069
69367	100	445	12	1	47	13	15	9	0	0	0	stim016_stimuli_original_vehicles_planes_4.png	L	0	0	0	310.510643800022	310.710638400051
69467	100	446	12	1	47	14	4	7	0	0	0	stim005_stimuli_original_animals_fish_1.png	J	0	0	0	310.910651300102	311.11065180006
69567	100	447	12	1	47	15	1	2	0	0	0	stim002_stimuli_original_animals_birds_2.png	C	0	0	0	311.310661500087	311.51066280005
69667	100	448	12	1	47	16	12	3	0	0	0	stim013_stimuli_original_vehicles_planes_1.png	D	0	0	0	311.710672400077	311.910672200029
69767	100	449	12	1	47	17	13	5	0	0	0	stim014_stimuli_original_vehicles_planes_2.png	F	0	0	0	312.110683800071	312.310681500006
69867	100	450	12	1	47	18	5	13	0	0	0	stim006_stimuli_original_animals_fish_2.png	U	0	0	0	312.510694900062	312.710693600005
69967	100	451	12	1	47	19	3	12	0	0	0	stim004_stimuli_original_animals_birds_4.png	T	0	0	0	312.910705200047	313.110704299994
70067	100	452	12	1	47	20	2	1	0	0	0	stim003_stimuli_original_animals_birds_3.png	B	0	0	0	313.310715900036	313.510716499994
70167	100	453	12	1	47	21	7	4	0	0	0	stim008_stimuli_original_animals_fish_4.png	E	0	0	0	313.710726800025	313.910725700087
70267	100	454	12	1	47	22	9	15	0	0	0	stim010_stimuli_original_vehicles_boats_2.png	Y	0	0	0	314.110736500006	314.310736400075
70367	100	455	12	1	47	23	10	14	0	1	0	stim011_stimuli_original_vehicles_boats_3.png	V	0	0	0	314.510746799991	314.7107693
70467	100	456	12	1	47	24	6	0	0	0	0	stim007_stimuli_original_animals_fish_3.png	A	0	0	0	314.910760900006	315.11075750005
70567	100	457	12	1	47	25	11	14	0	1	1	stim012_stimuli_original_vehicles_boats_4.png	V	0	0	0	315.310769700096	315.510774500086
70667	100	458	12	1	47	26	8	10	0	0	0	stim009_stimuli_original_vehicles_boats_1.png	Q	0	0	0	315.710779000074	315.910779200029
70767	100	459	12	1	47	27	4	5	0	0	0	stim005_stimuli_original_animals_fish_1.png	F	0	0	0	316.110791400075	316.310792100034
70867	100	460	12	1	47	28	11	9	1	0	0	stim012_stimuli_original_vehicles_boats_4.png	L	0	0	0	316.510800800053	316.710800600005
70967	100	461	12	1	47	29	1	3	0	0	0	stim002_stimuli_original_animals_birds_2.png	D	0	0	0	316.910812200047	317.110811699997
71067	100	462	12	1	47	30	11	2	1	0	0	stim012_stimuli_original_vehicles_boats_4.png	C	0	0	0	317.310824600048	317.51082299999
71167	100	463	12	1	47	31	12	7	0	0	0	stim013_stimuli_original_vehicles_planes_1.png	J	0	0	0	317.710832700017	317.910833400092
71267	100	464	12	1	47	32	0	14	0	0	0	stim001_stimuli_original_animals_birds_1.png	V	0	0	0	318.110844400013	318.310845100088
71367	100	465	12	1	47	33	15	11	0	0	0	stim016_stimuli_original_vehicles_planes_4.png	R	0	0	0	318.510855400003	318.71085760009
71467	100	466	12	1	47	34	14	6	0	0	0	stim015_stimuli_original_vehicles_planes_3.png	G	0	0	0	318.910868200008	319.110865500057
71567	100	467	12	1	47	35	13	8	0	0	0	stim014_stimuli_original_vehicles_planes_2.png	K	0	0	0	319.310875400086	319.510878800065
72150.5	100	468	13	0	36	0	1	12	0	0	0	stim002_stimuli_original_animals_birds_2.png	T	0	0	0	321.644289400079	321.844275700045
72250.5	100	469	13	0	36	1	12	15	0	0	0	stim013_stimuli_original_vehicles_planes_1.png	Y	0	0	0	322.044284100062	322.244283700013
72350.5	100	470	13	0	36	2	6	1	0	0	0	stim007_stimuli_original_animals_fish_3.png	B	0	0	0	322.444298800081	322.644295000006
72450.5	100	471	13	0	36	3	7	10	0	0	0	stim008_stimuli_original_animals_fish_4.png	Q	0	0	0	322.844290900044	323.044305899995
72550.5	100	472	13	0	36	4	14	6	1	0	0	stim015_stimuli_original_vehicles_planes_3.png	G	0	0	0	323.244316800032	323.44432130002
72650.5	100	473	13	0	36	5	0	4	0	0	0	stim001_stimuli_original_animals_birds_1.png	E	0	0	0	323.644328200025	323.844328500098
72750.5	100	474	13	0	36	6	14	3	1	0	1	stim015_stimuli_original_vehicles_planes_3.png	D	0	0	0	324.044338600012	324.244338100078
72850.5	100	475	13	0	36	7	15	8	0	0	0	stim016_stimuli_original_vehicles_planes_4.png	K	0	0	0	324.444349900004	324.644348700065
72950.5	100	476	13	0	36	8	9	13	0	0	0	stim010_stimuli_original_vehicles_boats_2.png	U	0	0	0	324.844359000097	325.044359100051
73050.5	100	477	13	0	36	9	2	7	0	0	0	stim003_stimuli_original_animals_birds_3.png	J	0	0	0	325.244373499998	325.444372300059
73150.5	100	478	13	0	36	10	14	9	0	0	0	stim015_stimuli_original_vehicles_planes_3.png	L	0	0	0	325.644380600075	325.844382800045
73250.5	100	479	13	0	36	11	3	4	0	1	0	stim004_stimuli_original_animals_birds_4.png	E	0	0	0	326.044392500073	326.244391400018
73350.5	100	480	13	0	36	12	5	11	0	0	0	stim006_stimuli_original_animals_fish_2.png	R	0	0	0	326.444403200061	326.644402200007
73450.5	100	481	13	0	36	13	11	4	0	1	0	stim012_stimuli_original_vehicles_boats_4.png	E	0	0	0	326.844413700048	327.044412999996
73550.5	100	482	13	0	36	14	4	2	0	0	0	stim005_stimuli_original_animals_fish_1.png	C	0	0	0	327.244427600061	327.444425399997
73650.5	100	483	13	0	36	15	8	14	0	0	0	stim009_stimuli_original_vehicles_boats_1.png	V	0	0	0	327.644436700037	327.844435400097
73750.5	100	484	13	0	36	16	10	5	0	0	0	stim011_stimuli_original_vehicles_boats_3.png	F	0	0	0	328.044446100015	328.244446000084
73850.5	100	485	13	0	36	17	13	0	0	0	0	stim014_stimuli_original_vehicles_planes_2.png	A	0	0	0	328.444454600103	328.644456100068
73950.5	100	486	13	0	36	18	0	13	0	0	0	stim001_stimuli_original_animals_birds_1.png	U	0	0	0	328.844470400014	329.044466900057
74050.5	100	487	13	0	36	19	5	10	0	0	0	stim006_stimuli_original_animals_fish_2.png	Q	0	0	0	329.244478500099	329.444482400082
74150.5	100	488	13	0	36	20	14	8	0	0	0	stim015_stimuli_original_vehicles_planes_3.png	K	0	0	0	329.64448830008	329.844489200041
74250.5	100	489	13	0	36	21	2	4	0	0	0	stim003_stimuli_original_animals_birds_3.png	E	0	0	0	330.044502600096	330.244500500034
74350.5	100	490	13	0	36	22	4	11	1	0	0	stim005_stimuli_original_animals_fish_1.png	R	0	0	0	330.444511500071	330.644511200022
74450.5	100	491	13	0	36	23	11	5	0	0	0	stim012_stimuli_original_vehicles_boats_4.png	F	0	0	0	330.844521300052	331.044522200013
74550.5	100	492	13	0	36	24	4	3	1	0	1	stim005_stimuli_original_animals_fish_1.png	D	0	0	0	331.244532200042	331.444535800023
74650.5	100	493	13	0	36	25	9	14	0	0	0	stim010_stimuli_original_vehicles_boats_2.png	V	0	0	0	331.644543600036	331.844541800092
74750.5	100	494	13	0	36	26	7	2	0	0	0	stim008_stimuli_original_animals_fish_4.png	C	0	0	0	332.04455510003	332.244554600096
74850.5	100	495	13	0	36	27	13	9	0	0	0	stim014_stimuli_original_vehicles_planes_2.png	L	0	0	0	332.444562999997	332.64456809999
74950.5	100	496	13	0	36	28	8	15	0	0	0	stim009_stimuli_original_vehicles_boats_1.png	Y	0	0	0	332.844575700001	333.044576700078
75050.5	100	497	13	0	36	29	3	14	0	1	0	stim004_stimuli_original_animals_birds_4.png	V	0	0	0	333.244586599991	333.444585100049
75150.5	100	498	13	0	36	30	4	0	0	0	0	stim005_stimuli_original_animals_fish_1.png	A	0	0	0	333.644596200087	333.844595500035
75250.5	100	499	13	0	36	31	6	14	0	1	0	stim007_stimuli_original_animals_fish_3.png	V	0	0	0	334.044607300078	334.244607400033
75350.5	100	500	13	0	36	32	10	7	0	0	0	stim011_stimuli_original_vehicles_boats_3.png	J	0	0	0	334.444616900058	334.644617700018
75450.5	100	501	13	0	36	33	1	6	0	0	0	stim002_stimuli_original_animals_birds_2.png	G	0	0	0	334.844629400061	335.044627399999
75550.5	100	502	13	0	36	34	15	12	0	0	0	stim016_stimuli_original_vehicles_planes_4.png	T	0	0	0	335.244638800039	335.444640100002
75650.5	100	503	13	0	36	35	12	1	0	0	0	stim013_stimuli_original_vehicles_planes_1.png	B	0	0	0	335.644652300049	335.844650599989
76946.25	100	504	14	1	21	0	1	6	0	0	0	stim002_stimuli_original_animals_birds_2.png	G	0	0	0	340.828130700043	341.028123100055
77046.25	100	505	14	1	21	1	5	8	0	0	0	stim006_stimuli_original_animals_fish_2.png	K	0	0	0	341.228134000092	341.428135100054
77146.5	100	506	14	1	21	2	9	7	0	0	0	stim010_stimuli_original_vehicles_boats_2.png	J	0	0	0	341.628145400085	341.82814420003
77246.5	100	507	14	1	21	3	8	10	0	0	0	stim009_stimuli_original_vehicles_boats_1.png	Q	0	0	0	342.028156300075	342.228155900026
77346.5	100	508	14	1	21	4	15	15	1	0	0	stim016_stimuli_original_vehicles_planes_4.png	Y	0	0	0	342.42816520005	342.628167900024
77446.5	100	509	14	1	21	5	12	12	0	0	0	stim013_stimuli_original_vehicles_planes_1.png	T	0	0	0	342.82817740005	343.028176099993
77546.5	100	510	14	1	21	6	15	1	1	0	0	stim016_stimuli_original_vehicles_planes_4.png	B	0	0	0	343.228189100046	343.428187799989
77646.5	100	511	14	1	21	7	2	9	0	0	0	stim003_stimuli_original_animals_birds_3.png	L	0	0	0	343.62820450007	343.828198100091
77746.5	100	512	14	1	21	8	6	0	0	0	0	stim007_stimuli_original_animals_fish_3.png	A	0	0	0	344.028209600016	344.228210100089
77846.5	100	513	14	1	21	9	13	5	0	0	0	stim014_stimuli_original_vehicles_planes_2.png	F	0	0	0	344.428221600014	344.628219900071
77946.5	100	514	14	1	21	10	11	3	0	0	0	stim012_stimuli_original_vehicles_boats_4.png	D	0	0	0	344.828232700005	345.028231100063
78046.5	100	515	14	1	21	11	10	8	0	1	0	stim011_stimuli_original_vehicles_boats_3.png	K	0	0	0	345.228243899997	345.428241400048
78146.5	100	516	14	1	21	12	15	14	0	0	0	stim016_stimuli_original_vehicles_planes_4.png	V	0	0	0	345.628253500094	345.828252900043
78246.5	100	517	14	1	21	13	4	8	0	1	1	stim005_stimuli_original_animals_fish_1.png	K	0	0	0	346.028272200027	346.22826480004
78346.5	100	518	14	1	21	14	0	2	0	0	0	stim001_stimuli_original_animals_birds_1.png	C	0	0	0	346.428274200065	346.628272500006
78446.5	100	519	14	1	21	15	14	4	0	0	0	stim015_stimuli_original_vehicles_planes_3.png	E	0	0	0	346.828285500058	347.028285200009
78546.5	100	520	14	1	21	16	3	13	0	0	0	stim004_stimuli_original_animals_birds_4.png	U	0	0	0	347.228297100053	347.428296400001
78646.5	100	521	14	1	21	17	7	11	0	0	0	stim008_stimuli_original_animals_fish_4.png	R	0	0	0	347.628305700026	347.828307499993
78746.5	100	522	14	1	21	18	11	7	0	0	0	stim012_stimuli_original_vehicles_boats_4.png	J	0	0	0	348.028318200028	348.2283186001
78846.5	100	523	14	1	21	19	13	3	0	0	0	stim014_stimuli_original_vehicles_planes_2.png	D	0	0	0	348.428328500013	348.628328900086
78946.5	100	524	14	1	21	20	4	14	0	0	0	stim005_stimuli_original_animals_fish_1.png	V	0	0	0	348.828338299994	349.028341800091
79046.5	100	525	14	1	21	21	2	0	0	0	0	stim003_stimuli_original_animals_birds_3.png	A	0	0	0	349.228351099999	349.428347600042
79146.5	100	526	14	1	21	22	8	4	1	0	0	stim009_stimuli_original_vehicles_boats_1.png	E	0	0	0	349.628362799995	349.828360300045
79246.5	100	527	14	1	21	23	14	15	0	0	0	stim015_stimuli_original_vehicles_planes_3.png	Y	0	0	0	350.028371300083	350.228370000026
79346.5	100	528	14	1	21	24	8	10	1	0	0	stim009_stimuli_original_vehicles_boats_1.png	Q	0	0	0	350.428382400074	350.628381100018
79446.5	100	529	14	1	21	25	3	11	0	0	0	stim004_stimuli_original_animals_birds_4.png	R	0	0	0	350.82839150005	351.028391200001
79546.5	100	530	14	1	21	26	5	13	0	0	0	stim006_stimuli_original_animals_fish_2.png	U	0	0	0	351.228403100045	351.428401599987
79646.5	100	531	14	1	21	27	0	6	0	0	0	stim001_stimuli_original_animals_birds_1.png	G	0	0	0	351.628414700041	351.8284155
79746.5	100	532	14	1	21	28	9	2	0	0	0	stim010_stimuli_original_vehicles_boats_2.png	C	0	0	0	352.028425800032	352.228424600093
79846.5	100	533	14	1	21	29	1	15	0	1	0	stim002_stimuli_original_animals_birds_2.png	Y	0	0	0	352.428436000017	352.628442100016
79946.5	100	534	14	1	21	30	12	12	0	0	0	stim013_stimuli_original_vehicles_planes_1.png	T	0	0	0	352.828445299994	353.028453700012
80046.5	100	535	14	1	21	31	15	15	0	1	1	stim016_stimuli_original_vehicles_planes_4.png	Y	0	0	0	353.228463700041	353.42845700006
80146.5	100	536	14	1	21	32	10	8	0	0	0	stim011_stimuli_original_vehicles_boats_3.png	K	0	0	0	353.628471200005	353.828467500047
80246.5	100	537	14	1	21	33	7	9	0	0	0	stim008_stimuli_original_animals_fish_4.png	L	s	354.021015300066	1	354.028479600092	354.228479800047
80346.5	100	538	14	1	21	34	8	5	0	0	0	stim009_stimuli_original_vehicles_boats_1.png	F	0	0	0	354.428490500082	354.628489900031
80446.5	100	539	14	1	21	35	6	1	0	0	0	stim007_stimuli_original_animals_fish_3.png	B	0	0	0	354.828499400057	355.028499600012
83321.5	100	540	15	0	18	0	7	2	0	0	0	stim008_stimuli_original_animals_fish_4.png	C	0	0	0	366.328834700049	366.528835400008
83421.5	100	541	15	0	18	1	15	4	0	0	0	stim016_stimuli_original_vehicles_planes_4.png	E	0	0	0	366.728850500076	366.928848200012
83521.5	100	542	15	0	18	2	5	3	0	0	0	stim006_stimuli_original_animals_fish_2.png	D	0	0	0	367.128858800046	367.328860800015
83621.5	100	543	15	0	18	3	12	5	0	0	0	stim013_stimuli_original_vehicles_planes_1.png	F	0	0	0	367.528870800044	367.728872000007
83721.5	100	544	15	0	18	4	3	1	0	0	0	stim004_stimuli_original_animals_birds_4.png	B	0	0	0	367.928888100083	368.128885000013
83821.5	100	545	15	0	18	5	11	10	0	0	0	stim012_stimuli_original_vehicles_boats_4.png	Q	0	0	0	368.328895400045	368.528893700102
83921.5	100	546	15	0	18	6	12	0	1	0	0	stim013_stimuli_original_vehicles_planes_1.png	A	0	0	0	368.728919400019	368.92890910001
84021.5	100	547	15	0	18	7	8	12	0	0	0	stim009_stimuli_original_vehicles_boats_1.png	T	0	0	0	369.128917400027	369.328916700091
84121.5	100	548	15	0	18	8	12	7	1	1	1	stim013_stimuli_original_vehicles_planes_1.png	J	0	0	0	369.528928900021	369.72892620007
84221.5	100	549	15	0	18	9	4	13	0	0	0	stim005_stimuli_original_animals_fish_1.png	U	0	0	0	369.928937299992	370.128938200069
84321.5	100	550	15	0	18	10	10	7	0	1	0	stim011_stimuli_original_vehicles_boats_3.png	J	0	0	0	370.328954100027	370.528947700048
84421.5	100	551	15	0	18	11	0	14	0	0	0	stim001_stimuli_original_animals_birds_1.png	V	0	0	0	370.728975100094	370.928958800039
84521.5	100	552	15	0	18	12	6	11	0	0	0	stim007_stimuli_original_animals_fish_3.png	R	0	0	0	371.128973100102	371.328955000034
84621.5	100	553	15	0	18	13	9	9	0	0	0	stim010_stimuli_original_vehicles_boats_2.png	L	0	0	0	371.52898250008	371.728983500041
84721.5	100	554	15	0	18	14	2	15	0	0	0	stim003_stimuli_original_animals_birds_3.png	Y	0	0	0	371.928991500055	372.12899290002
84821.5	100	555	15	0	18	15	14	7	0	0	0	stim015_stimuli_original_vehicles_planes_3.png	J	0	0	0	372.329004800064	372.529002199997
84921.5	100	556	15	0	18	16	1	8	0	0	0	stim002_stimuli_original_animals_birds_2.png	K	0	0	0	372.729013500037	372.928992800065
85021.5	100	557	15	0	18	17	13	6	0	0	0	stim014_stimuli_original_vehicles_planes_2.png	G	0	0	0	373.129026800045	373.329043500009
85121.5	100	558	15	0	18	18	6	13	0	0	0	stim007_stimuli_original_animals_fish_3.png	U	0	0	0	373.529021200025	373.729040500009
85221.5	100	559	15	0	18	19	8	1	0	0	0	stim009_stimuli_original_vehicles_boats_1.png	B	0	0	0	373.92904670001	374.129046400078
85321.5	100	560	15	0	18	20	7	14	0	0	0	stim008_stimuli_original_animals_fish_4.png	V	0	0	0	374.329058800009	374.529062199988
85421.5	100	561	15	0	18	21	15	2	0	0	0	stim016_stimuli_original_vehicles_planes_4.png	C	0	0	0	374.72906640009	374.929070100072
85521.5	100	562	15	0	18	22	9	9	0	0	0	stim010_stimuli_original_vehicles_boats_2.png	L	0	0	0	375.129084100015	375.329077000031
85621.5	100	563	15	0	18	23	11	6	0	0	0	stim012_stimuli_original_vehicles_boats_4.png	G	0	0	0	375.529087700066	375.729090600042
85721.5	100	564	15	0	18	24	14	0	0	0	0	stim015_stimuli_original_vehicles_planes_3.png	A	0	0	0	375.929103200091	376.1290974
85821.5	100	565	15	0	18	25	7	10	1	0	0	stim008_stimuli_original_animals_fish_4.png	Q	0	0	0	376.329112800071	376.529111200012
85921.5	100	566	15	0	18	26	13	4	0	0	0	stim014_stimuli_original_vehicles_planes_2.png	E	0	0	0	376.729106400046	376.929120899993
86021.5	100	567	15	0	18	27	7	12	1	1	1	stim008_stimuli_original_animals_fish_4.png	T	s	377.320944000036	1	377.129132000031	377.329129900085
86121.5	100	568	15	0	18	28	12	8	0	0	0	stim013_stimuli_original_vehicles_planes_1.png	K	0	0	0	377.529145600041	377.729146900005
86221.5	100	569	15	0	18	29	0	12	0	1	0	stim001_stimuli_original_animals_birds_1.png	T	0	0	0	377.9291524	378.129171900102
86321.5	100	570	15	0	18	30	10	11	0	0	0	stim011_stimuli_original_vehicles_boats_3.png	R	0	0	0	378.329165100004	378.529165400076
86421.5	100	571	15	0	18	31	1	3	0	0	0	stim002_stimuli_original_animals_birds_2.png	D	0	0	0	378.729160899995	378.929156600032
86521.5	100	572	15	0	18	32	5	12	0	0	0	stim006_stimuli_original_animals_fish_2.png	T	0	0	0	379.129165400052	379.329170700046
86621.5	100	573	15	0	18	33	3	5	0	0	0	stim004_stimuli_original_animals_birds_4.png	F	0	0	0	379.529179000063	379.729170600069
86721.5	100	574	15	0	18	34	4	15	0	0	0	stim005_stimuli_original_animals_fish_1.png	Y	0	0	0	379.929176300066	380.129176500021
86821.5	100	575	15	0	18	35	2	7	0	0	0	stim003_stimuli_original_animals_birds_3.png	J	0	0	0	380.329188500065	380.529186800006
87817.5	100	576	16	1	38	0	10	11	0	0	0	stim011_stimuli_original_vehicles_boats_3.png	R	0	0	0	384.312631800072	384.512641700101
87917.5	100	577	16	1	38	1	11	14	0	0	0	stim012_stimuli_original_vehicles_boats_4.png	V	0	0	0	384.71265120001	384.912639699993
88017.5	100	578	16	1	38	2	6	9	0	0	0	stim007_stimuli_original_animals_fish_3.png	L	0	0	0	385.112651100033	385.312649600091
88117.5	100	579	16	1	38	3	5	12	0	0	0	stim006_stimuli_original_animals_fish_2.png	T	0	0	0	385.512659100001	385.71265900007
88217.5	100	580	16	1	38	4	7	6	0	0	0	stim008_stimuli_original_animals_fish_4.png	G	0	0	0	385.912670799997	386.112670400064
88317.5	100	581	16	1	38	5	2	13	0	0	0	stim003_stimuli_original_animals_birds_3.png	U	0	0	0	386.312688900041	386.512678800034
88417.5	100	582	16	1	38	6	0	5	0	1	0	stim001_stimuli_original_animals_birds_1.png	F	0	0	0	386.712702500052	386.912692200043
88517.5	100	583	16	1	38	7	9	1	1	0	0	stim010_stimuli_original_vehicles_boats_2.png	B	0	0	0	387.112704200088	387.312702600029
88617.5	100	584	16	1	38	8	13	5	0	1	1	stim014_stimuli_original_vehicles_planes_2.png	F	0	0	0	387.512713200063	387.712717200047
88717.5	100	585	16	1	38	9	9	15	1	0	0	stim010_stimuli_original_vehicles_boats_2.png	Y	0	0	0	387.912724200054	388.112723500002
88817.5	100	586	16	1	38	10	8	4	0	0	0	stim009_stimuli_original_vehicles_boats_1.png	E	s	388.305339900078	1	388.312736100052	388.512734499993
88917.5	100	587	16	1	38	11	3	0	0	0	0	stim004_stimuli_original_animals_birds_4.png	A	0	0	0	388.712746700039	388.91277699999
89017.5	100	588	16	1	38	12	4	5	0	0	0	stim005_stimuli_original_animals_fish_1.png	F	0	0	0	389.112757900031	389.312757400097
89117.5	100	589	16	1	38	13	14	3	0	0	0	stim015_stimuli_original_vehicles_planes_3.png	D	0	0	0	389.51278400002	389.712766800076
89217.5	100	590	16	1	38	14	1	8	0	0	0	stim002_stimuli_original_animals_birds_2.png	K	s	389.905409200001	0	389.912777699996	390.112780700088
89317.5	100	591	16	1	38	15	9	7	0	0	0	stim010_stimuli_original_vehicles_boats_2.png	J	0	0	0	390.312792500015	390.512787600048
89417.5	100	592	16	1	38	16	15	2	0	0	0	stim016_stimuli_original_vehicles_planes_4.png	C	0	0	0	390.7128006001	390.912801000057
89517.5	100	593	16	1	38	17	12	10	0	0	0	stim013_stimuli_original_vehicles_planes_1.png	Q	0	0	0	391.112812000094	391.312810200034
89617.5	100	594	16	1	38	18	10	12	0	0	0	stim011_stimuli_original_vehicles_boats_3.png	T	0	0	0	391.512850600062	391.712821300025
89717.5	100	595	16	1	38	19	2	15	0	0	0	stim003_stimuli_original_animals_birds_3.png	Y	0	0	0	391.912832200062	392.11284419999
89817.5	100	596	16	1	38	20	7	9	0	0	0	stim008_stimuli_original_animals_fish_4.png	L	0	0	0	392.312843900057	392.512847500038
89917.5	100	597	16	1	38	21	8	1	0	0	0	stim009_stimuli_original_vehicles_boats_1.png	B	0	0	0	392.712854200043	392.9128525001
90017.5	100	598	16	1	38	22	3	14	0	0	0	stim004_stimuli_original_animals_birds_4.png	V	0	0	0	393.112867600052	393.312862800085
90117.5	100	599	16	1	38	23	5	4	0	0	0	stim006_stimuli_original_animals_fish_2.png	E	0	0	0	393.512876000023	393.712872500066
90217.5	100	600	16	1	38	24	0	3	0	0	0	stim001_stimuli_original_animals_birds_1.png	D	0	0	0	393.91288660001	394.11289800005
90317.5	100	601	16	1	38	25	4	8	0	0	0	stim005_stimuli_original_animals_fish_1.png	K	0	0	0	394.312896599993	394.512898300076
90417.5	100	602	16	1	38	26	15	9	0	1	0	stim016_stimuli_original_vehicles_planes_4.png	L	0	0	0	394.712920500082	394.912907800055
90517.5	100	603	16	1	38	27	5	13	1	0	0	stim006_stimuli_original_animals_fish_2.png	U	0	0	0	395.112919900101	395.31291810004
90617.5	100	604	16	1	38	28	1	9	0	1	1	stim002_stimuli_original_animals_birds_2.png	L	0	0	0	395.512930200086	395.712929500034
90717.5	100	605	16	1	38	29	5	0	1	0	0	stim006_stimuli_original_animals_fish_2.png	A	s	396.104731100029	1	395.912941000075	396.112940100022
90817.5	100	606	16	1	38	30	13	2	0	0	0	stim014_stimuli_original_vehicles_planes_2.png	C	0	0	0	396.312964600045	396.512950400007
90917.5	100	607	16	1	38	31	6	7	0	0	0	stim007_stimuli_original_animals_fish_3.png	J	0	0	0	396.712964200065	396.912964100018
91017.5	100	608	16	1	38	32	12	5	0	0	0	stim013_stimuli_original_vehicles_planes_1.png	F	0	0	0	397.112973200041	397.312970700092
91117.5	100	609	16	1	38	33	9	6	0	0	0	stim010_stimuli_original_vehicles_boats_2.png	G	0	0	0	397.512985100038	397.712983300094
91217.5	100	610	16	1	38	34	14	11	0	0	0	stim015_stimuli_original_vehicles_planes_3.png	R	0	0	0	397.912993100006	398.112992900074
91317.5	100	611	16	1	38	35	11	10	0	0	0	stim012_stimuli_original_vehicles_boats_4.png	Q	0	0	0	398.31300580001	398.513004900073
92167.5	100	612	17	0	34	0	6	1	0	0	0	stim007_stimuli_original_animals_fish_3.png	B	0	0	0	401.713134400081	401.913132100017
92267.5	100	613	17	0	34	1	11	5	0	0	0	stim012_stimuli_original_vehicles_boats_4.png	F	0	0	0	402.11313860002	402.313150900067
92367.5	100	614	17	0	34	2	15	11	0	0	0	stim016_stimuli_original_vehicles_planes_4.png	R	0	0	0	402.51313690003	402.713148800074
92467.5	100	615	17	0	34	3	4	2	0	0	0	stim005_stimuli_original_animals_fish_1.png	C	0	0	0	402.913161100005	403.113164200098
92567.5	100	616	17	0	34	4	3	12	0	0	0	stim004_stimuli_original_animals_birds_4.png	T	0	0	0	403.313169000088	403.513163600001
92667.5	100	617	17	0	34	5	2	10	0	0	0	stim003_stimuli_original_animals_birds_3.png	Q	0	0	0	403.713188800029	403.913181100041
92767.5	100	618	17	0	34	6	9	0	1	1	0	stim010_stimuli_original_vehicles_boats_2.png	A	0	0	0	404.113194600097	404.31319320004
92867.5	100	619	17	0	34	7	7	15	0	0	0	stim008_stimuli_original_animals_fish_4.png	Y	0	0	0	404.513202700065	404.71320290002
92967.5	100	620	17	0	34	8	9	0	1	1	1	stim010_stimuli_original_vehicles_boats_2.png	A	0	0	0	404.913213400054	405.113208700088
93067.5	100	621	17	0	34	9	0	7	0	0	0	stim001_stimuli_original_animals_birds_1.png	J	0	0	0	405.313226300059	405.513223199989
93167.5	100	622	17	0	34	10	14	14	0	0	0	stim015_stimuli_original_vehicles_planes_3.png	V	0	0	0	405.713234100025	405.913234300097
93267.5	100	623	17	0	34	11	8	8	0	0	0	stim009_stimuli_original_vehicles_boats_1.png	K	0	0	0	406.113250700058	406.313244500081
93367.5	100	624	17	0	34	12	13	9	0	0	0	stim014_stimuli_original_vehicles_planes_2.png	L	0	0	0	406.513259300031	406.713259300101
93467.5	100	625	17	0	34	13	1	6	0	0	0	stim002_stimuli_original_animals_birds_2.png	G	0	0	0	406.913266499992	407.113293700037
93567.5	100	626	17	0	34	14	9	3	0	0	0	stim010_stimuli_original_vehicles_boats_2.png	D	0	0	0	407.3132776001	407.513265000074
93667.5	100	627	17	0	34	15	10	4	0	0	0	stim011_stimuli_original_vehicles_boats_3.png	E	0	0	0	407.713291299995	407.913289600052
93767.5	100	628	17	0	34	16	12	13	0	0	0	stim013_stimuli_original_vehicles_planes_1.png	U	s	408.305085500004	0	408.113301000092	408.313302400056
93867.5	100	629	17	0	34	17	5	0	0	0	0	stim006_stimuli_original_animals_fish_2.png	A	0	0	0	408.513311300077	408.713301900076
93967.5	100	630	17	0	34	18	0	5	0	0	0	stim001_stimuli_original_animals_birds_1.png	F	0	0	0	408.913322200067	409.113324200036
94067.5	100	631	17	0	34	19	13	12	0	0	0	stim014_stimuli_original_vehicles_planes_2.png	T	0	0	0	409.313332500053	409.513332900009
94167.75	100	632	17	0	34	20	4	10	0	0	0	stim005_stimuli_original_animals_fish_1.png	Q	0	0	0	409.713345300057	409.913342999993
94267.75	100	633	17	0	34	21	3	9	0	0	0	stim004_stimuli_original_animals_birds_4.png	L	0	0	0	410.113357300055	410.313356500003
94367.75	100	634	17	0	34	22	6	1	0	0	0	stim007_stimuli_original_animals_fish_3.png	B	0	0	0	410.513363900012	410.713365500094
94467.75	100	635	17	0	34	23	9	13	0	0	0	stim010_stimuli_original_vehicles_boats_2.png	U	0	0	0	410.913377600024	411.113378899987
94567.75	100	636	17	0	34	24	8	8	0	0	0	stim009_stimuli_original_vehicles_boats_1.png	K	0	0	0	411.313385299989	411.513389300089
94667.75	100	637	17	0	34	25	14	14	0	0	0	stim015_stimuli_original_vehicles_planes_3.png	V	0	0	0	411.713395900093	411.91339900007
94767.75	100	638	17	0	34	26	7	0	0	0	0	stim008_stimuli_original_animals_fish_4.png	A	0	0	0	412.113409499987	412.313392600045
94867.75	100	639	17	0	34	27	0	9	1	1	0	stim001_stimuli_original_animals_birds_1.png	L	0	0	0	412.513418300077	412.71341950004
94967.75	100	640	17	0	34	28	15	7	0	0	0	stim016_stimuli_original_vehicles_planes_4.png	J	0	0	0	412.913431700086	413.113430900034
95067.75	100	641	17	0	34	29	0	9	1	1	1	stim001_stimuli_original_animals_birds_1.png	L	0	0	0	413.313438000041	413.513425100013
95167.75	100	642	17	0	34	30	10	2	0	0	0	stim011_stimuli_original_vehicles_boats_3.png	C	0	0	0	413.713449700037	413.913435499999
95267.75	100	643	17	0	34	31	12	3	0	0	0	stim013_stimuli_original_vehicles_planes_1.png	D	0	0	0	414.113463800051	414.313463300001
95367.75	100	644	17	0	34	32	2	4	0	0	0	stim003_stimuli_original_animals_birds_3.png	E	0	0	0	414.513459600043	414.71347060008
95467.75	100	645	17	0	34	33	11	15	0	0	0	stim012_stimuli_original_vehicles_boats_4.png	Y	0	0	0	414.913483000011	415.11348900001
95567.75	100	646	17	0	34	34	5	11	0	0	0	stim006_stimuli_original_animals_fish_2.png	R	0	0	0	415.313478700002	415.513491900056
95667.75	100	647	17	0	34	35	1	6	0	0	0	stim002_stimuli_original_animals_birds_2.png	G	0	0	0	415.713503700099	415.913504600059
96655.25	100	648	18	1	18	0	7	2	0	0	0	stim008_stimuli_original_animals_fish_4.png	C	0	0	0	419.663581500063	419.863585000043
96755.25	100	649	18	1	18	1	15	4	0	0	0	stim016_stimuli_original_vehicles_planes_4.png	E	0	0	0	420.063590900041	420.263592400006
96855.25	100	650	18	1	18	2	5	3	0	0	0	stim006_stimuli_original_animals_fish_2.png	D	0	0	0	420.463602700038	420.663600500091
96955.25	100	651	18	1	18	3	12	5	0	0	0	stim013_stimuli_original_vehicles_planes_1.png	F	0	0	0	420.863611700013	421.063611800084
97055.25	100	652	18	1	18	4	3	1	0	0	0	stim004_stimuli_original_animals_birds_4.png	B	0	0	0	421.263626600034	421.463624000084
97155.25	100	653	18	1	18	5	11	10	0	0	0	stim012_stimuli_original_vehicles_boats_4.png	Q	0	0	0	421.663635400007	421.863632700057
97255.25	100	654	18	1	18	6	12	0	1	0	0	stim013_stimuli_original_vehicles_planes_1.png	A	0	0	0	422.063650700031	422.263646000065
97355.25	100	655	18	1	18	7	8	12	0	0	0	stim009_stimuli_original_vehicles_boats_1.png	T	0	0	0	422.463654900086	422.663676900091
97455.25	100	656	18	1	18	8	12	7	1	1	0	stim013_stimuli_original_vehicles_planes_1.png	J	0	0	0	422.863667200087	423.063663800014
97555.25	100	657	18	1	18	9	4	13	0	0	0	stim005_stimuli_original_animals_fish_1.png	U	0	0	0	423.263677400071	423.463677100022
97655.25	100	658	18	1	18	10	10	7	0	1	1	stim011_stimuli_original_vehicles_boats_3.png	J	0	0	0	423.663688800065	423.863686600002
97755.25	100	659	18	1	18	11	0	14	0	0	0	stim001_stimuli_original_animals_birds_1.png	V	0	0	0	424.063698200043	424.263697899994
97855.25	100	660	18	1	18	12	6	11	0	0	0	stim007_stimuli_original_animals_fish_3.png	R	s	424.456256600097	1	424.463709200034	424.663729300024
97955.25	100	661	18	1	18	13	9	9	0	0	0	stim010_stimuli_original_vehicles_boats_2.png	L	0	0	0	424.863721700036	425.063720000093
98055.25	100	662	18	1	18	14	2	15	0	0	0	stim003_stimuli_original_animals_birds_3.png	Y	0	0	0	425.263750300044	425.463731300086
98155.25	100	663	18	1	18	15	14	7	0	0	0	stim015_stimuli_original_vehicles_planes_3.png	J	0	0	0	425.6637414	425.863740900066
98255.25	100	664	18	1	18	16	1	8	0	0	0	stim002_stimuli_original_animals_birds_2.png	K	s	426.255536200013	0	426.063751100097	426.263753300067
98355.25	100	665	18	1	18	17	13	6	0	0	0	stim014_stimuli_original_vehicles_planes_2.png	G	0	0	0	426.4637637001	426.663763400051
98455.25	100	666	18	1	18	18	6	13	0	0	0	stim007_stimuli_original_animals_fish_3.png	U	0	0	0	426.863784600049	427.063776400057
98555.25	100	667	18	1	18	19	8	1	0	0	0	stim009_stimuli_original_vehicles_boats_1.png	B	0	0	0	427.263798500062	427.463785600034
98655.25	100	668	18	1	18	20	7	14	0	0	0	stim008_stimuli_original_animals_fish_4.png	V	0	0	0	427.663795100059	427.863807199989
98755.25	100	669	18	1	18	21	15	2	0	0	0	stim016_stimuli_original_vehicles_planes_4.png	C	0	0	0	428.063807700062	428.263807300013
98855.25	100	670	18	1	18	22	9	9	0	0	0	stim010_stimuli_original_vehicles_boats_2.png	L	0	0	0	428.463816300035	428.663817799999
98955.25	100	671	18	1	18	23	11	6	0	0	0	stim012_stimuli_original_vehicles_boats_4.png	G	0	0	0	428.863849200075	429.06384409999
99055.25	100	672	18	1	18	24	14	0	0	0	0	stim015_stimuli_original_vehicles_planes_3.png	A	0	0	0	429.263851700001	429.463835900067
99155.25	100	673	18	1	18	25	7	10	1	0	0	stim008_stimuli_original_animals_fish_4.png	Q	0	0	0	429.663850000012	429.863850000082
99255.25	100	674	18	1	18	26	13	4	0	0	0	stim014_stimuli_original_vehicles_planes_2.png	E	0	0	0	430.063876200002	430.263859900064
99355.25	100	675	18	1	18	27	7	12	1	1	0	stim008_stimuli_original_animals_fish_4.png	T	0	0	0	430.463884200086	430.66387030005
99455.25	100	676	18	1	18	28	12	8	0	0	0	stim013_stimuli_original_vehicles_planes_1.png	K	0	0	0	430.863881000085	431.063881100039
99555.25	100	677	18	1	18	29	0	12	0	1	1	stim001_stimuli_original_animals_birds_1.png	T	0	0	0	431.263891500072	431.463892700034
99655.25	100	678	18	1	18	30	10	11	0	0	0	stim011_stimuli_original_vehicles_boats_3.png	R	0	0	0	431.663902900065	431.863903800026
99755.25	100	679	18	1	18	31	1	3	0	0	0	stim002_stimuli_original_animals_birds_2.png	D	0	0	0	432.063943300047	432.2639127
99855.25	100	680	18	1	18	32	5	12	0	0	0	stim006_stimuli_original_animals_fish_2.png	T	0	0	0	432.46392540005	432.663942000014
99955.25	100	681	18	1	18	33	3	5	0	0	0	stim004_stimuli_original_animals_birds_4.png	F	0	0	0	432.863935200032	433.06393579999
100055.25	100	682	18	1	18	34	4	15	0	0	0	stim005_stimuli_original_animals_fish_1.png	Y	0	0	0	433.263946800027	433.463947400101
100155.25	100	683	18	1	18	35	2	7	0	0	0	stim003_stimuli_original_animals_birds_3.png	J	0	0	0	433.663954599993	433.863956700079
104072	100	684	19	0	23	0	1	10	0	0	0	stim002_stimuli_original_animals_birds_2.png	Q	0	0	0	449.331047900021	449.531044500065
104172	100	685	19	0	23	1	7	2	0	0	0	stim008_stimuli_original_animals_fish_4.png	C	0	0	0	449.731056999997	449.931057100068
104272	100	686	19	0	23	2	0	14	0	0	0	stim001_stimuli_original_animals_birds_1.png	V	0	0	0	450.131089900038	450.331066200044
104372	100	687	19	0	23	3	15	9	0	0	0	stim016_stimuli_original_vehicles_planes_4.png	L	0	0	0	450.531078700093	450.731076300028
104472	100	688	19	0	23	4	11	4	0	0	0	stim012_stimuli_original_vehicles_boats_4.png	E	0	0	0	450.931090500089	451.131101100007
104572	100	689	19	0	23	5	4	13	0	1	0	stim005_stimuli_original_animals_fish_1.png	U	0	0	0	451.331099300063	451.531100100023
104672	100	690	19	0	23	6	10	3	0	0	0	stim011_stimuli_original_vehicles_boats_3.png	D	0	0	0	451.731109700049	451.931110500009
104772	100	691	19	0	23	7	8	13	0	1	0	stim009_stimuli_original_vehicles_boats_1.png	U	0	0	0	452.13112070004	452.331123200012
104872	100	692	19	0	23	8	13	6	0	0	0	stim014_stimuli_original_vehicles_planes_2.png	G	0	0	0	452.531131200027	452.731160300085
104972	100	693	19	0	23	9	5	12	0	0	0	stim006_stimuli_original_animals_fish_2.png	T	0	0	0	452.931144300033	453.131144100102
105072	100	694	19	0	23	10	8	15	1	0	0	stim009_stimuli_original_vehicles_boats_1.png	Y	0	0	0	453.331180500099	453.531151900068
105172	100	695	19	0	23	11	3	13	0	0	0	stim004_stimuli_original_animals_birds_4.png	U	0	0	0	453.731165200006	453.931164600071
105272	100	696	19	0	23	12	8	0	1	0	1	stim009_stimuli_original_vehicles_boats_1.png	A	0	0	0	454.131173500093	454.331174800056
105372	100	697	19	0	23	13	2	7	0	0	0	stim003_stimuli_original_animals_birds_3.png	J	0	0	0	454.5311889	454.731185300043
105472	100	698	19	0	23	14	12	8	0	0	0	stim013_stimuli_original_vehicles_planes_1.png	K	0	0	0	454.931199100101	455.131200000062
105572	100	699	19	0	23	15	6	1	0	0	0	stim007_stimuli_original_animals_fish_3.png	B	0	0	0	455.331234100042	455.53120680002
105672	100	700	19	0	23	16	9	11	0	0	0	stim010_stimuli_original_vehicles_boats_2.png	R	0	0	0	455.731216700049	455.931223700056
105772	100	701	19	0	23	17	14	5	0	0	0	stim015_stimuli_original_vehicles_planes_3.png	F	0	0	0	456.131233300082	456.331229700008
105872	100	702	19	0	23	18	5	14	0	0	0	stim006_stimuli_original_animals_fish_2.png	V	0	0	0	456.531239400036	456.731241500005
105972	100	703	19	0	23	19	11	9	0	0	0	stim012_stimuli_original_vehicles_boats_4.png	L	0	0	0	456.931250800029	457.131249700091
106072	100	704	19	0	23	20	1	6	0	0	0	stim002_stimuli_original_animals_birds_2.png	G	0	0	0	457.331262000022	457.531282400014
106172	100	705	19	0	23	21	8	12	0	0	0	stim009_stimuli_original_vehicles_boats_1.png	T	0	0	0	457.731270999997	457.931286200066
106272	100	706	19	0	23	22	7	2	0	0	0	stim008_stimuli_original_animals_fish_4.png	C	0	0	0	458.131283800001	458.331281700055
106372	100	707	19	0	23	23	0	8	0	1	0	stim001_stimuli_original_animals_birds_1.png	K	0	0	0	458.531299500028	458.731293000048
106472	100	708	19	0	23	24	13	3	0	0	0	stim014_stimuli_original_vehicles_planes_2.png	D	0	0	0	458.931303200079	459.131303500035
106572	100	709	19	0	23	25	15	8	0	1	0	stim016_stimuli_original_vehicles_planes_4.png	K	0	0	0	459.331314600073	459.531313600019
106672	100	710	19	0	23	26	12	5	0	0	0	stim013_stimuli_original_vehicles_planes_1.png	F	0	0	0	459.731326300069	459.931325800018
106772	100	711	19	0	23	27	6	13	0	0	0	stim007_stimuli_original_animals_fish_3.png	U	0	0	0	460.131366400048	460.331338900025
106872	100	712	19	0	23	28	13	8	1	0	0	stim014_stimuli_original_vehicles_planes_2.png	K	0	0	0	460.531345500029	460.731361100101
106972	100	713	19	0	23	29	3	10	0	0	0	stim004_stimuli_original_animals_birds_4.png	Q	0	0	0	460.931361700059	461.131368100061
107072	100	714	19	0	23	30	13	4	1	0	1	stim014_stimuli_original_vehicles_planes_2.png	E	0	0	0	461.331369300024	461.531369000091
107172	100	715	19	0	23	31	4	11	0	0	0	stim005_stimuli_original_animals_fish_1.png	R	0	0	0	461.73137970001	461.93137840007
107272	100	716	19	0	23	32	9	15	0	0	0	stim010_stimuli_original_vehicles_boats_2.png	Y	0	0	0	462.13138939999	462.331391100073
107372	100	717	19	0	23	33	14	0	0	0	0	stim015_stimuli_original_vehicles_planes_3.png	A	0	0	0	462.531399200088	462.731428000028
107472	100	718	19	0	23	34	2	7	0	0	0	stim003_stimuli_original_animals_birds_3.png	J	0	0	0	462.931410900084	463.13141250005
107572	100	719	19	0	23	35	10	1	0	0	0	stim011_stimuli_original_vehicles_boats_3.png	B	0	0	0	463.3314427	463.531423700042
108563.75	100	720	20	1	36	0	1	12	0	0	0	stim002_stimuli_original_animals_birds_2.png	T	0	0	0	467.298227400053	467.498221100075
108663.75	100	721	20	1	36	1	12	15	0	0	0	stim013_stimuli_original_vehicles_planes_1.png	Y	0	0	0	467.6982326	467.898234900087
108763.75	100	722	20	1	36	2	6	1	0	0	0	stim007_stimuli_original_animals_fish_3.png	B	0	0	0	468.098244499997	468.298242700053
108863.75	100	723	20	1	36	3	7	10	0	0	0	stim008_stimuli_original_animals_fish_4.png	Q	0	0	0	468.4982571	468.698253100039
108963.75	100	724	20	1	36	4	14	6	1	0	0	stim015_stimuli_original_vehicles_planes_3.png	G	0	0	0	468.898283999995	469.098248300026
109063.75	100	725	20	1	36	5	0	4	0	0	0	stim001_stimuli_original_animals_birds_1.png	E	0	0	0	469.298277000082	469.498274100013
109163.75	100	726	20	1	36	6	14	3	1	0	0	stim015_stimuli_original_vehicles_planes_3.png	D	0	0	0	469.698286700062	469.898289200035
109263.75	100	727	20	1	36	7	15	8	0	0	0	stim016_stimuli_original_vehicles_planes_4.png	K	0	0	0	470.098297800054	470.298283100012
109363.75	100	728	20	1	36	8	9	13	0	0	0	stim010_stimuli_original_vehicles_boats_2.png	U	0	0	0	470.49831210007	470.698307499988
109463.75	100	729	20	1	36	9	2	7	0	0	0	stim003_stimuli_original_animals_birds_3.png	J	0	0	0	470.898319900036	471.098310700036
109563.75	100	730	20	1	36	10	14	9	0	0	0	stim015_stimuli_original_vehicles_planes_3.png	L	0	0	0	471.298330400023	471.498361400096
109663.75	100	731	20	1	36	11	3	4	0	1	0	stim004_stimuli_original_animals_birds_4.png	E	0	0	0	471.698340300005	471.898343000095
109763.75	100	732	20	1	36	12	5	11	0	0	0	stim006_stimuli_original_animals_fish_2.png	R	0	0	0	472.098350399989	472.298350400059
109863.75	100	733	20	1	36	13	11	4	0	1	1	stim012_stimuli_original_vehicles_boats_4.png	E	0	0	0	472.498363899998	472.698362600058
109963.75	100	734	20	1	36	14	4	2	0	0	0	stim005_stimuli_original_animals_fish_1.png	C	0	0	0	472.898373100092	473.09837370005
110063.75	100	735	20	1	36	15	8	14	0	0	0	stim009_stimuli_original_vehicles_boats_1.png	V	0	0	0	473.29838380008	473.498383600032
110163.75	100	736	20	1	36	16	10	5	0	0	0	stim011_stimuli_original_vehicles_boats_3.png	F	0	0	0	473.698371300008	473.898398000048
110263.75	100	737	20	1	36	17	13	0	0	0	0	stim014_stimuli_original_vehicles_planes_2.png	A	0	0	0	474.098413300002	474.298389700009
110363.75	100	738	20	1	36	18	0	13	0	0	0	stim001_stimuli_original_animals_birds_1.png	U	0	0	0	474.49841660005	474.698414599989
110463.75	100	739	20	1	36	19	5	10	0	0	0	stim006_stimuli_original_animals_fish_2.png	Q	0	0	0	474.89842620003	475.098431800026
110563.75	100	740	20	1	36	20	14	8	0	0	0	stim015_stimuli_original_vehicles_planes_3.png	K	0	0	0	475.298439000035	475.498436200083
110663.75	100	741	20	1	36	21	2	4	0	0	0	stim003_stimuli_original_animals_birds_3.png	E	0	0	0	475.698446599999	475.8984528
110763.75	100	742	20	1	36	22	4	11	1	0	0	stim005_stimuli_original_animals_fish_1.png	R	0	0	0	476.098464900046	476.298438900034
110863.75	100	743	20	1	36	23	11	5	0	0	0	stim012_stimuli_original_vehicles_boats_4.png	F	0	0	0	476.498469499988	476.698469500057
110963.75	100	744	20	1	36	24	4	3	1	0	0	stim005_stimuli_original_animals_fish_1.png	D	0	0	0	476.898467499996	477.098480200046
111063.75	100	745	20	1	36	25	9	14	0	0	0	stim010_stimuli_original_vehicles_boats_2.png	V	0	0	0	477.298491000081	477.498492000042
111163.75	100	746	20	1	36	26	7	2	0	0	0	stim008_stimuli_original_animals_fish_4.png	C	0	0	0	477.698502400075	477.898503800039
111263.75	100	747	20	1	36	27	13	9	0	0	0	stim014_stimuli_original_vehicles_planes_2.png	L	0	0	0	478.098512000055	478.298511900008
111364	100	748	20	1	36	28	8	15	0	0	0	stim009_stimuli_original_vehicles_boats_1.png	Y	0	0	0	478.498528500088	478.6985231
111464	100	749	20	1	36	29	3	14	0	1	0	stim004_stimuli_original_animals_birds_4.png	V	0	0	0	478.898520800052	479.098538200022
111564	100	750	20	1	36	30	4	0	0	0	0	stim005_stimuli_original_animals_fish_1.png	A	0	0	0	479.298544200021	479.498539600056
111664	100	751	20	1	36	31	6	14	0	1	1	stim007_stimuli_original_animals_fish_3.png	V	0	0	0	479.698557000025	479.898556700093
111764	100	752	20	1	36	32	10	7	0	0	0	stim011_stimuli_original_vehicles_boats_3.png	J	s	480.290382100036	1	480.09856980003	480.298569400096
111864	100	753	20	1	36	33	1	6	0	0	0	stim002_stimuli_original_animals_birds_2.png	G	0	0	0	480.498578900006	480.698582699988
111964	100	754	20	1	36	34	15	12	0	0	0	stim016_stimuli_original_vehicles_planes_4.png	T	0	0	0	480.898594200029	481.098572100047
112064	100	755	20	1	36	35	12	1	0	0	0	stim013_stimuli_original_vehicles_planes_1.png	B	0	0	0	481.298601999995	481.49862050009
112676.5	100	756	21	0	35	0	13	6	0	0	0	stim014_stimuli_original_vehicles_planes_2.png	G	s	483.741392900003	1	483.748677200056	483.94866470003
112776.5	100	757	21	0	35	1	12	7	0	0	0	stim013_stimuli_original_vehicles_planes_1.png	J	0	0	0	484.148673600052	484.348676200025
112876.5	100	758	21	0	35	2	3	15	0	0	0	stim004_stimuli_original_animals_birds_4.png	Y	0	0	0	484.54868690006	484.748685800005
112976.5	100	759	21	0	35	3	15	10	0	0	0	stim016_stimuli_original_vehicles_planes_4.png	Q	0	0	0	484.948697400047	485.148696799995
113076.5	100	760	21	0	35	4	14	14	0	0	0	stim015_stimuli_original_vehicles_planes_3.png	V	0	0	0	485.34870740003	485.548705900088
113176.5	100	761	21	0	35	5	8	4	0	0	0	stim009_stimuli_original_vehicles_boats_1.png	E	0	0	0	485.748720200034	485.948720100103
113276.5	100	762	21	0	35	6	7	3	0	0	0	stim008_stimuli_original_animals_fish_4.png	D	0	0	0	486.148736200063	486.348727400065
113376.5	100	763	21	0	35	7	0	2	0	0	0	stim001_stimuli_original_animals_birds_1.png	C	0	0	0	486.548741900013	486.748727000086
113476.5	100	764	21	0	35	8	11	6	0	1	0	stim012_stimuli_original_vehicles_boats_4.png	G	0	0	0	486.948750799987	487.148750400054
113576.5	100	765	21	0	35	9	14	9	1	0	0	stim015_stimuli_original_vehicles_planes_3.png	L	0	0	0	487.348762300098	487.548760300037
113676.5	100	766	21	0	35	10	2	6	0	1	0	stim003_stimuli_original_animals_birds_3.png	G	0	0	0	487.74877210008	487.948778400081
113776.5	100	767	21	0	35	11	14	13	1	0	1	stim015_stimuli_original_vehicles_planes_3.png	U	0	0	0	488.148784700083	488.34878130001
113876.5	100	768	21	0	35	12	6	8	0	0	0	stim007_stimuli_original_animals_fish_3.png	K	0	0	0	488.548795100069	488.748816500069
113976.5	100	769	21	0	35	13	1	5	0	0	0	stim002_stimuli_original_animals_birds_2.png	F	s	489.14058970008	1	488.948805300053	489.148804199998
114076.5	100	770	21	0	35	14	5	11	0	0	0	stim006_stimuli_original_animals_fish_2.png	R	0	0	0	489.348816500045	489.548814800102
114176.5	100	771	21	0	35	15	9	12	0	0	0	stim010_stimuli_original_vehicles_boats_2.png	T	0	0	0	489.748832900077	489.948810500093
114276.5	100	772	21	0	35	16	10	1	0	0	0	stim011_stimuli_original_vehicles_boats_3.png	B	0	0	0	490.148837400018	490.348829200026
114376.5	100	773	21	0	35	17	4	0	0	0	0	stim005_stimuli_original_animals_fish_1.png	A	0	0	0	490.548849400016	490.748849000083
114476.5	100	774	21	0	35	18	0	4	0	0	0	stim001_stimuli_original_animals_birds_1.png	E	0	0	0	490.948863300029	491.148857400054
114576.5	100	775	21	0	35	19	1	10	0	0	0	stim002_stimuli_original_animals_birds_2.png	Q	0	0	0	491.348894300056	491.548867100035
114676.5	100	776	21	0	35	20	12	9	0	0	0	stim013_stimuli_original_vehicles_planes_1.png	L	0	0	0	491.748883099994	491.948884700076
114776.5	100	777	21	0	35	21	11	5	0	0	0	stim012_stimuli_original_vehicles_boats_4.png	F	0	0	0	492.148889400065	492.348877400043
114876.5	100	778	21	0	35	22	5	1	0	0	0	stim006_stimuli_original_animals_fish_2.png	B	0	0	0	492.548903100076	492.748901000014
114976.5	100	779	21	0	35	23	8	6	0	0	0	stim009_stimuli_original_vehicles_boats_1.png	G	0	0	0	492.948917700094	493.148927500006
115076.5	100	780	21	0	35	24	13	14	0	1	0	stim014_stimuli_original_vehicles_planes_2.png	V	0	0	0	493.348923700047	493.548930900055
115176.5	100	781	21	0	35	25	6	2	1	0	0	stim007_stimuli_original_animals_fish_3.png	C	0	0	0	493.748933500028	493.948934199987
115276.5	100	782	21	0	35	26	9	14	0	1	0	stim010_stimuli_original_vehicles_boats_2.png	V	0	0	0	494.148935500067	494.348945500096
115376.5	100	783	21	0	35	27	6	11	1	0	1	stim007_stimuli_original_animals_fish_3.png	R	0	0	0	494.548958600033	494.748956300085
115476.5	100	784	21	0	35	28	2	0	0	0	0	stim003_stimuli_original_animals_birds_3.png	A	0	0	0	494.948967900011	495.148968500085
115576.5	100	785	21	0	35	29	3	7	0	0	0	stim004_stimuli_original_animals_birds_4.png	J	s	495.341538300039	1	495.348982800031	495.548978200066
115676.5	100	786	21	0	35	30	4	8	0	0	0	stim005_stimuli_original_animals_fish_1.png	K	0	0	0	495.748978500022	495.948972100043
115776.5	100	787	21	0	35	31	14	14	0	0	0	stim015_stimuli_original_vehicles_planes_3.png	V	0	0	0	496.149004300009	496.348998600035
115876.5	100	788	21	0	35	32	10	15	0	0	0	stim011_stimuli_original_vehicles_boats_3.png	Y	0	0	0	496.549011600087	496.74899750005
115976.5	100	789	21	0	35	33	15	3	0	0	0	stim016_stimuli_original_vehicles_planes_4.png	D	0	0	0	496.949019900057	497.149023300037
116076.5	100	790	21	0	35	34	7	12	0	0	0	stim008_stimuli_original_animals_fish_4.png	T	0	0	0	497.349029200035	497.549034100026
116176.5	100	791	21	0	35	35	6	13	0	0	0	stim007_stimuli_original_animals_fish_3.png	U	0	0	0	497.749043500051	497.949041499989
117230.75	100	792	22	1	8	0	0	8	0	0	0	stim001_stimuli_original_animals_birds_1.png	K	0	0	0	501.965820500045	502.165820199996
117330.75	100	793	22	1	8	1	13	12	0	0	0	stim014_stimuli_original_vehicles_planes_2.png	T	0	0	0	502.365835600067	502.565831899992
117430.75	100	794	22	1	8	2	14	7	0	0	0	stim015_stimuli_original_vehicles_planes_3.png	J	0	0	0	502.765847600065	502.965844899998
117530.75	100	795	22	1	8	3	11	5	0	0	0	stim012_stimuli_original_vehicles_boats_4.png	F	0	0	0	503.165856100037	503.365852700081
117630.75	100	796	22	1	8	4	10	9	0	0	0	stim011_stimuli_original_vehicles_boats_3.png	L	0	0	0	503.565865700017	503.765853499994
117730.75	100	797	22	1	8	5	15	10	0	0	0	stim016_stimuli_original_vehicles_planes_4.png	Q	0	0	0	503.965876100003	504.165860100067
117830.75	100	798	22	1	8	6	3	2	0	0	0	stim004_stimuli_original_animals_birds_4.png	C	0	0	0	504.365885100095	504.565888600075
117930.75	100	799	22	1	8	7	4	1	0	0	0	stim005_stimuli_original_animals_fish_1.png	B	0	0	0	504.765897400095	504.965897900052
118030.75	100	800	22	1	8	8	8	11	0	0	0	stim009_stimuli_original_vehicles_boats_1.png	R	0	0	0	505.165908000083	505.365906300023
