onset	duration	eventnumber	sequencenumber	condition	streamnumber	stimnumber	objectstimnumber	letterstimnumber	objecttarget	lettertarget	is2back	objectstim	letterstim	response	rt	correct	time_stimon	time_stimoff
8109.5	100	0	0	0	39	0	7	11	0	0	0	stim008_stimuli_original_animals_fish_4.png	R	0	0	0	58.1181329999818	58.3187122000381
8209.5	100	1	0	0	39	1	15	2	0	0	0	stim016_stimuli_original_vehicles_planes_4.png	C	0	0	0	58.5181549000554	58.7181486999616
8309.5	100	2	0	0	39	2	0	13	0	0	0	stim001_stimuli_original_animals_birds_1.png	U	0	0	0	58.9181626000209	59.1181616999675
8409.5	100	3	0	0	39	3	2	4	0	0	0	stim003_stimuli_original_animals_birds_3.png	E	0	0	0	59.318169599981	59.5182011999423
8509.5	100	4	0	0	39	4	13	12	0	0	0	stim014_stimuli_original_vehicles_planes_2.png	T	0	0	0	59.7181871000212	59.9181812000461
8609.5	100	5	0	0	39	5	3	0	0	0	0	stim004_stimuli_original_animals_birds_4.png	A	0	0	0	60.1182100999868	60.3181817999575
8709.5	100	6	0	0	39	6	14	1	1	0	0	stim015_stimuli_original_vehicles_planes_3.png	B	0	0	0	60.5182061999803	60.7182030000258
8809.5	100	7	0	0	39	7	5	3	0	0	0	stim006_stimuli_original_animals_fish_2.png	D	0	0	0	60.9182191999862	61.118219200056
8909.5	100	8	0	0	39	8	14	14	1	0	1	stim015_stimuli_original_vehicles_planes_3.png	V	0	0	0	61.318227599957	61.5182253000094
9009.5	100	9	0	0	39	9	4	0	0	1	0	stim005_stimuli_original_animals_fish_1.png	A	0	0	0	61.7182462000055	61.9182370000053
9109.5	100	10	0	0	39	10	1	6	0	0	0	stim002_stimuli_original_animals_birds_2.png	G	0	0	0	62.118262300035	62.3182469999883
9209.5	100	11	0	0	39	11	10	0	0	1	0	stim011_stimuli_original_vehicles_boats_3.png	A	0	0	0	62.5182646999601	62.7182635000208
9309.5	100	12	0	0	39	12	14	8	0	0	0	stim015_stimuli_original_vehicles_planes_3.png	K	0	0	0	62.9182756999508	63.1182731000008
9409.5	100	13	0	0	39	13	9	7	0	0	0	stim010_stimuli_original_vehicles_boats_2.png	J	0	0	0	63.3182830000296	63.5183079000562
9509.5	100	14	0	0	39	14	8	9	0	0	0	stim009_stimuli_original_vehicles_boats_1.png	L	d	63.7110488000326	0	63.718453599955	63.9183001000201
9609.5	100	15	0	0	39	15	12	10	0	0	0	stim013_stimuli_original_vehicles_planes_1.png	Q	0	0	0	64.1183060000185	64.3183075999841
9709.5	100	16	0	0	39	16	11	15	0	0	0	stim012_stimuli_original_vehicles_boats_4.png	Y	0	0	0	64.5183215000434	64.7183183999732
9809.5	100	17	0	0	39	17	6	5	0	0	0	stim007_stimuli_original_animals_fish_3.png	F	0	0	0	64.9183290000074	65.1183290999616
9909.5	100	18	0	0	39	18	5	6	0	0	0	stim006_stimuli_original_animals_fish_2.png	G	0	0	0	65.318338299985	65.5183365000412
10009.5	100	19	0	0	39	19	15	11	0	0	0	stim016_stimuli_original_vehicles_planes_4.png	R	0	0	0	65.7183507999871	65.9183477000333
10109.5	100	20	0	0	39	20	10	12	0	0	0	stim011_stimuli_original_vehicles_boats_3.png	T	0	0	0	66.1183604999678	66.3183487999486
10209.5	100	21	0	0	39	21	9	8	0	0	0	stim010_stimuli_original_vehicles_boats_2.png	K	0	0	0	66.5183572999667	66.7183592000511
10309.5	100	22	0	0	39	22	7	9	0	0	0	stim008_stimuli_original_animals_fish_4.png	L	0	0	0	66.9183716999833	67.1183724999428
10409.5	100	23	0	0	39	23	8	14	0	0	0	stim009_stimuli_original_vehicles_boats_1.png	V	0	0	0	67.3183961999603	67.518391199992
10509.5	100	24	0	0	39	24	0	10	1	0	0	stim001_stimuli_original_animals_birds_1.png	Q	0	0	0	67.718404800049	67.9184073000215
10609.5	100	25	0	0	39	25	6	1	0	0	0	stim007_stimuli_original_animals_fish_3.png	B	0	0	0	68.1184160000412	68.318407200044
10709.5	100	26	0	0	39	26	0	4	1	0	1	stim001_stimuli_original_animals_birds_1.png	E	0	0	0	68.5184160999488	68.7184219999472
10809.5	100	27	0	0	39	27	14	14	0	1	0	stim015_stimuli_original_vehicles_planes_3.png	V	0	0	0	68.9184271000559	69.1184267000062
10909.5	100	28	0	0	39	28	3	5	0	0	0	stim004_stimuli_original_animals_birds_4.png	F	0	0	0	69.3184461999917	69.5184362999862
11009.5	100	29	0	0	39	29	1	14	0	1	0	stim002_stimuli_original_animals_birds_2.png	V	0	0	0	69.7184491000371	69.9184517000103
11109.5	100	30	0	0	39	30	0	3	0	0	0	stim001_stimuli_original_animals_birds_1.png	D	0	0	0	70.1184585000155	70.318460999988
11209.5	100	31	0	0	39	31	12	13	0	0	0	stim013_stimuli_original_vehicles_planes_1.png	U	0	0	0	70.518472500029	70.7184749000007
11309.5	100	32	0	0	39	32	4	2	0	0	0	stim005_stimuli_original_animals_fish_1.png	C	d	70.9110495999921	0	70.9184852000326	71.1184828999685
11409.5	100	33	0	0	39	33	13	0	0	0	0	stim014_stimuli_original_vehicles_planes_2.png	A	0	0	0	71.3184948000126	71.5184915999416
11509.5	100	34	0	0	39	34	2	15	0	0	0	stim003_stimuli_original_animals_birds_3.png	Y	0	0	0	71.7185056000017	71.9185050999513
11609.5	100	35	0	0	39	35	11	7	0	0	0	stim012_stimuli_original_vehicles_boats_4.png	J	0	0	0	72.1185260999482	72.3185279000318
12930.25	100	36	1	1	45	0	1	15	0	0	0	stim002_stimuli_original_animals_birds_2.png	Y	0	0	0	77.4020118999761	77.6020084000193
13030.25	100	37	1	1	45	1	13	1	0	0	0	stim014_stimuli_original_vehicles_planes_2.png	B	0	0	0	77.8020188000519	78.0020168999908
13130.25	100	38	1	1	45	2	8	4	0	0	0	stim009_stimuli_original_vehicles_boats_1.png	E	0	0	0	78.2020341999596	78.4020289999899
13230.25	100	39	1	1	45	3	14	3	0	0	0	stim015_stimuli_original_vehicles_planes_3.png	D	0	0	0	78.6020424000453	78.8020435000071
13330.25	100	40	1	1	45	4	5	5	0	0	0	stim006_stimuli_original_animals_fish_2.png	F	0	0	0	79.0020527000306	79.2020552000031
13430.25	100	41	1	1	45	5	15	12	0	0	0	stim016_stimuli_original_vehicles_planes_4.png	T	0	0	0	79.4020494000288	79.6020620999625
13530.25	100	42	1	1	45	6	4	11	0	0	0	stim005_stimuli_original_animals_fish_1.png	R	0	0	0	79.8020766000263	80.0020736999577
13630.25	100	43	1	1	45	7	11	10	0	0	0	stim012_stimuli_original_vehicles_boats_4.png	Q	0	0	0	80.202085900004	80.4020849999506
13730.25	100	44	1	1	45	8	14	8	1	0	0	stim015_stimuli_original_vehicles_planes_3.png	K	0	0	0	80.6020966999931	80.8020998999709
13830.25	100	45	1	1	45	9	0	13	0	0	0	stim001_stimuli_original_animals_birds_1.png	U	0	0	0	81.0021061999723	81.202107100049
13930.25	100	46	1	1	45	10	14	2	1	0	0	stim015_stimuli_original_vehicles_planes_3.png	C	0	0	0	81.4021180999698	81.6021179000381
14030.25	100	47	1	1	45	11	6	10	0	1	0	stim007_stimuli_original_animals_fish_3.png	Q	0	0	0	81.8021329999901	82.0021277000196
14130.25	100	48	1	1	45	12	9	9	0	0	0	stim010_stimuli_original_vehicles_boats_2.png	L	0	0	0	82.2021426999709	82.402146599954
14230.25	100	49	1	1	45	13	7	10	0	1	1	stim008_stimuli_original_animals_fish_4.png	Q	0	0	0	82.6021515999455	82.8021412000526
14330.5	100	50	1	1	45	14	10	7	0	0	0	stim011_stimuli_original_vehicles_boats_3.png	J	d	83.1939608999528	1	83.0021667999681	83.2021601999877
14430.5	100	51	1	1	45	15	12	6	0	0	0	stim013_stimuli_original_vehicles_planes_1.png	G	0	0	0	83.4021747000515	83.6021797000431
14530.5	100	52	1	1	45	16	2	14	0	0	0	stim003_stimuli_original_animals_birds_3.png	V	0	0	0	83.8021883999463	84.0021856999956
14630.5	100	53	1	1	45	17	3	0	0	0	0	stim004_stimuli_original_animals_birds_4.png	A	0	0	0	84.2021958000259	84.4021953999763
14730.5	100	54	1	1	45	18	0	3	0	0	0	stim001_stimuli_original_animals_birds_1.png	D	0	0	0	84.6022208000068	84.8022077999776
14830.5	100	55	1	1	45	19	14	2	0	0	0	stim015_stimuli_original_vehicles_planes_3.png	C	0	0	0	85.0022276999662	85.2022133000428
14930.5	100	56	1	1	45	20	6	12	0	0	0	stim007_stimuli_original_animals_fish_3.png	T	0	0	0	85.402221599943	85.602218199987
15030.5	100	57	1	1	45	21	7	10	0	0	0	stim008_stimuli_original_animals_fish_4.png	Q	0	0	0	85.802229700028	86.0022295999806
15130.5	100	58	1	1	45	22	10	7	1	0	0	stim011_stimuli_original_vehicles_boats_3.png	J	0	0	0	86.2022416000254	86.4022422999842
15230.5	100	59	1	1	45	23	9	9	0	0	0	stim010_stimuli_original_vehicles_boats_2.png	L	0	0	0	86.6022633999819	86.8022671999643
15330.5	100	60	1	1	45	24	10	6	1	0	0	stim011_stimuli_original_vehicles_boats_3.png	G	0	0	0	87.0022727999603	87.2022760000546
15430.5	100	61	1	1	45	25	2	14	0	1	0	stim003_stimuli_original_animals_birds_3.png	V	0	0	0	87.4022845999571	87.6022864000406
15530.5	100	62	1	1	45	26	13	0	0	0	0	stim014_stimuli_original_vehicles_planes_2.png	A	0	0	0	87.8022953999462	88.002295400016
15630.5	100	63	1	1	45	27	8	14	0	1	1	stim009_stimuli_original_vehicles_boats_1.png	V	0	0	0	88.2023092999589	88.402307100012
15730.5	100	64	1	1	45	28	10	11	0	0	0	stim011_stimuli_original_vehicles_boats_3.png	R	d	88.7941152000567	1	88.602316500037	88.8023190000094
15830.5	100	65	1	1	45	29	11	4	0	0	0	stim012_stimuli_original_vehicles_boats_4.png	E	0	0	0	89.0023300000466	89.2023304000031
15930.5	100	66	1	1	45	30	12	15	0	0	0	stim013_stimuli_original_vehicles_planes_1.png	Y	0	0	0	89.4023419000441	89.6023428000044
16030.5	100	67	1	1	45	31	5	5	0	0	0	stim006_stimuli_original_animals_fish_2.png	F	0	0	0	89.8023524000309	90.0023507999722
16130.5	100	68	1	1	45	32	3	14	0	0	0	stim004_stimuli_original_animals_birds_4.png	V	0	0	0	90.2023623000132	90.4023650999879
16230.5	100	69	1	1	45	33	4	8	0	0	0	stim005_stimuli_original_animals_fish_1.png	K	0	0	0	90.6023748000152	90.8023731999565
16330.5	100	70	1	1	45	34	1	13	0	0	0	stim002_stimuli_original_animals_birds_2.png	U	0	0	0	91.0023869000142	91.2023841999471
16430.5	100	71	1	1	45	35	15	1	0	0	0	stim016_stimuli_original_vehicles_planes_4.png	B	0	0	0	91.4023973000003	91.6023984999629
17430.5	100	72	2	0	31	0	10	1	0	0	0	stim011_stimuli_original_vehicles_boats_3.png	B	0	0	0	95.40251299995	95.6024945999961
17530.5	100	73	2	0	31	1	9	11	0	0	0	stim010_stimuli_original_vehicles_boats_2.png	R	0	0	0	95.8025181000121	96.0025194999762
17630.5	100	74	2	0	31	2	1	6	0	0	0	stim002_stimuli_original_animals_birds_2.png	G	0	0	0	96.2025442000013	96.4025288999546
17730.5	100	75	2	0	31	3	8	5	0	0	0	stim009_stimuli_original_vehicles_boats_1.png	F	0	0	0	96.6025414000032	96.8025444999803
17830.5	100	76	2	0	31	4	2	12	0	0	0	stim003_stimuli_original_animals_birds_3.png	T	0	0	0	97.0025635999627	97.2025517999427
17930.5	100	77	2	0	31	5	11	0	0	1	0	stim012_stimuli_original_vehicles_boats_4.png	A	0	0	0	97.4025643999921	97.6025642999448
18030.5	100	78	2	0	31	6	9	7	1	0	0	stim010_stimuli_original_vehicles_boats_2.png	J	0	0	0	97.802577399998	98.0025820999872
18130.5	100	79	2	0	31	7	3	0	0	1	0	stim004_stimuli_original_animals_birds_4.png	A	0	0	0	98.2026131999446	98.4025849000318
18230.5	100	80	2	0	31	8	9	13	1	0	1	stim010_stimuli_original_vehicles_boats_2.png	U	0	0	0	98.6026095000561	98.8026111000217
18330.5	100	81	2	0	31	9	0	4	0	0	0	stim001_stimuli_original_animals_birds_1.png	E	0	0	0	99.0025981999934	99.2025978999445
18430.5	100	82	2	0	31	10	6	3	0	0	0	stim007_stimuli_original_animals_fish_3.png	D	d	99.3952055999544	1	99.4026077999733	99.6026079000439
18530.5	100	83	2	0	31	11	4	15	0	0	0	stim005_stimuli_original_animals_fish_1.png	Y	0	0	0	99.8026190999663	100.002619000035
18630.5	100	84	2	0	31	12	14	2	0	0	0	stim015_stimuli_original_vehicles_planes_3.png	C	0	0	0	100.20262919995	100.402634499944
18730.5	100	85	2	0	31	13	12	9	0	0	0	stim013_stimuli_original_vehicles_planes_1.png	L	0	0	0	100.602643299964	100.802653999999
18830.5	100	86	2	0	31	14	5	8	0	0	0	stim006_stimuli_original_animals_fish_2.png	K	0	0	0	101.002651400049	101.2026511
18930.5	100	87	2	0	31	15	7	10	0	0	0	stim008_stimuli_original_animals_fish_4.png	Q	0	0	0	101.402675500023	101.602662999998
19030.5	100	88	2	0	31	16	15	14	0	0	0	stim016_stimuli_original_vehicles_planes_4.png	V	0	0	0	101.802672900027	102.002674499992
19130.5	100	89	2	0	31	17	13	0	0	0	0	stim014_stimuli_original_vehicles_planes_2.png	A	0	0	0	102.20268430002	102.402685399982
19230.5	100	90	2	0	31	18	0	13	0	0	0	stim001_stimuli_original_animals_birds_1.png	U	0	0	0	102.602700300049	102.802696799976
19330.5	100	91	2	0	31	19	14	15	0	0	0	stim015_stimuli_original_vehicles_planes_3.png	Y	0	0	0	103.002705899999	103.202706199954
19430.5	100	92	2	0	31	20	10	7	0	0	0	stim011_stimuli_original_vehicles_boats_3.png	J	0	0	0	103.402729199966	103.602717599948
19530.5	100	93	2	0	31	21	8	5	0	0	0	stim009_stimuli_original_vehicles_boats_1.png	F	d	103.994528900017	0	103.802732300013	104.002744599944
19630.5	100	94	2	0	31	22	9	12	0	0	0	stim010_stimuli_original_vehicles_boats_2.png	T	0	0	0	104.202741699992	104.402740400052
19730.5	100	95	2	0	31	23	2	14	0	0	0	stim003_stimuli_original_animals_birds_3.png	V	0	0	0	104.602756200009	104.802751800045
19830.5	100	96	2	0	31	24	15	4	0	0	0	stim016_stimuli_original_vehicles_planes_4.png	E	0	0	0	105.002762999968	105.202764100046
19930.5	100	97	2	0	31	25	3	6	0	0	0	stim004_stimuli_original_animals_birds_4.png	G	0	0	0	105.402774499962	105.602802700014
20030.5	100	98	2	0	31	26	4	0	0	0	0	stim005_stimuli_original_animals_fish_1.png	A	0	0	0	105.802786899963	106.002785400022
20130.5	100	99	2	0	31	27	13	9	0	1	0	stim014_stimuli_original_vehicles_planes_2.png	L	0	0	0	106.202811599942	106.402797100018
20230.5	100	100	2	0	31	28	0	3	1	0	0	stim001_stimuli_original_animals_birds_1.png	D	0	0	0	106.602806700044	106.802840400022
20330.5	100	101	2	0	31	29	7	9	0	1	0	stim008_stimuli_original_animals_fish_4.png	L	0	0	0	107.002819300047	107.202818399994
20430.5	100	102	2	0	31	30	0	11	1	0	1	stim001_stimuli_original_animals_birds_1.png	R	0	0	0	107.402831600048	107.602830499993
20530.5	100	103	2	0	31	31	12	2	0	0	0	stim013_stimuli_original_vehicles_planes_1.png	C	d	107.994637000025	1	107.802841800032	108.00284109998
20630.5	100	104	2	0	31	32	5	8	0	0	0	stim006_stimuli_original_animals_fish_2.png	K	0	0	0	108.202874099952	108.402852099971
20730.5	100	105	2	0	31	33	6	1	0	0	0	stim007_stimuli_original_animals_fish_3.png	B	0	0	0	108.602861799998	108.802869800013
20830.5	100	106	2	0	31	34	11	9	0	0	0	stim012_stimuli_original_vehicles_boats_4.png	L	0	0	0	109.002877700026	109.202874099952
20930.5	100	107	2	0	31	35	1	10	0	0	0	stim002_stimuli_original_animals_birds_2.png	Q	0	0	0	109.402885999996	109.602884899941
21664	100	108	3	1	15	0	5	0	0	0	0	stim006_stimuli_original_animals_fish_2.png	A	0	0	0	112.336305600009	112.536306899972
21764	100	109	3	1	15	1	6	10	0	0	0	stim007_stimuli_original_animals_fish_3.png	Q	0	0	0	112.736314599984	112.936329700053
21864	100	110	3	1	15	2	15	13	0	0	0	stim016_stimuli_original_vehicles_planes_4.png	U	0	0	0	113.136338499957	113.336335400003
21964	100	111	3	1	15	3	3	4	0	0	0	stim004_stimuli_original_animals_birds_4.png	E	0	0	0	113.536363800056	113.736348400009
22064	100	112	3	1	15	4	1	12	0	0	0	stim002_stimuli_original_animals_birds_2.png	T	0	0	0	113.93636729999	114.136357599986
22164	100	113	3	1	15	5	8	8	0	0	0	stim009_stimuli_original_vehicles_boats_1.png	K	0	0	0	114.336369900033	114.536368799978
22264	100	114	3	1	15	6	7	14	0	0	0	stim008_stimuli_original_animals_fish_4.png	V	0	0	0	114.736381300027	114.936380199972
22364	100	115	3	1	15	7	11	7	0	0	0	stim012_stimuli_original_vehicles_boats_4.png	J	0	0	0	115.136391000007	115.336393699981
22464	100	116	3	1	15	8	12	11	1	1	0	stim013_stimuli_original_vehicles_planes_1.png	R	0	0	0	115.536402400001	115.736403699964
22564	100	117	3	1	15	9	2	15	0	0	0	stim003_stimuli_original_animals_birds_3.png	Y	0	0	0	115.936413699994	116.136441600043
22664	100	118	3	1	15	10	12	11	1	1	1	stim013_stimuli_original_vehicles_planes_1.png	R	0	0	0	116.336422299966	116.536425199942
22764	100	119	3	1	15	11	14	1	0	0	0	stim015_stimuli_original_vehicles_planes_3.png	B	0	0	0	116.736459200038	116.936436900054
22864	100	120	3	1	15	12	0	5	0	0	0	stim001_stimuli_original_animals_birds_1.png	F	d	117.32823590003	1	117.136446499964	117.336446900037
22964	100	121	3	1	15	13	4	9	0	0	0	stim005_stimuli_original_animals_fish_1.png	L	0	0	0	117.536456099944	117.736463199952
23064	100	122	3	1	15	14	13	2	0	0	0	stim014_stimuli_original_vehicles_planes_2.png	C	0	0	0	117.936470599961	118.136468300014
23164	100	123	3	1	15	15	9	6	0	0	0	stim010_stimuli_original_vehicles_boats_2.png	G	0	0	0	118.336479500053	118.536479400005
23264	100	124	3	1	15	16	12	11	0	0	0	stim013_stimuli_original_vehicles_planes_1.png	R	0	0	0	118.736516000004	118.936494400026
23364	100	125	3	1	15	17	10	3	0	0	0	stim011_stimuli_original_vehicles_boats_3.png	D	0	0	0	119.13650230004	119.336504100007
23464	100	126	3	1	15	18	3	10	0	0	0	stim004_stimuli_original_animals_birds_4.png	Q	0	0	0	119.536514900043	119.736512499978
23564	100	127	3	1	15	19	11	12	0	0	0	stim012_stimuli_original_vehicles_boats_4.png	T	0	0	0	119.936526600039	120.136526099988
23664	100	128	3	1	15	20	6	9	0	0	0	stim007_stimuli_original_animals_fish_3.png	L	0	0	0	120.336533900001	120.536534899962
23764	100	129	3	1	15	21	2	13	0	0	0	stim003_stimuli_original_animals_birds_3.png	U	0	0	0	120.736545199994	120.936546999961
23864	100	130	3	1	15	22	9	4	0	0	0	stim010_stimuli_original_vehicles_boats_2.png	E	0	0	0	121.136555199977	121.336569700041
23964	100	131	3	1	15	23	5	0	0	0	0	stim006_stimuli_original_animals_fish_2.png	A	0	0	0	121.536568799987	121.736571799964
24064	100	132	3	1	15	24	1	14	0	0	0	stim002_stimuli_original_animals_birds_2.png	V	0	0	0	121.936587200034	122.13658219995
24164	100	133	3	1	15	25	11	12	1	1	0	stim012_stimuli_original_vehicles_boats_4.png	T	0	0	0	122.336590399966	122.536590400035
24264	100	134	3	1	15	26	15	2	0	0	0	stim016_stimuli_original_vehicles_planes_4.png	C	0	0	0	122.736603899975	122.936606299947
24364	100	135	3	1	15	27	11	12	1	1	1	stim012_stimuli_original_vehicles_boats_4.png	T	0	0	0	123.136614899966	123.33661150001
24464	100	136	3	1	15	28	7	11	0	0	0	stim008_stimuli_original_animals_fish_4.png	R	d	123.728430100018	1	123.536636500037	123.736625400023
24564	100	137	3	1	15	29	14	7	0	0	0	stim015_stimuli_original_vehicles_planes_3.png	J	0	0	0	123.936646900023	124.136667000013
24664	100	138	3	1	15	30	8	8	0	0	0	stim009_stimuli_original_vehicles_boats_1.png	K	0	0	0	124.336645900039	124.536644799984
24764	100	139	3	1	15	31	12	1	0	0	0	stim013_stimuli_original_vehicles_planes_1.png	B	0	0	0	124.736660100054	124.936659200001
24864	100	140	3	1	15	32	4	3	0	0	0	stim005_stimuli_original_animals_fish_1.png	D	0	0	0	125.136668500025	125.336666599964
24964	100	141	3	1	15	33	13	15	0	0	0	stim014_stimuli_original_vehicles_planes_2.png	Y	0	0	0	125.536681000027	125.736685800017
25064	100	142	3	1	15	34	10	6	0	0	0	stim011_stimuli_original_vehicles_boats_3.png	G	0	0	0	125.936698899954	126.136678199982
25164	100	143	3	1	15	35	0	5	0	0	0	stim001_stimuli_original_animals_birds_1.png	F	0	0	0	126.336701099994	126.536704299971
26143.25	100	144	4	0	47	0	8	3	0	0	0	stim009_stimuli_original_vehicles_boats_1.png	D	0	0	0	130.253483399982	130.45350199996
26243.25	100	145	4	0	47	1	13	13	0	0	0	stim014_stimuli_original_vehicles_planes_2.png	U	0	0	0	130.653489600052	130.853487699991
26343.25	100	146	4	0	47	2	14	6	0	0	0	stim015_stimuli_original_vehicles_planes_3.png	G	0	0	0	131.05351290002	131.253499899991
26443.25	100	147	4	0	47	3	4	9	0	0	0	stim005_stimuli_original_animals_fish_1.png	L	0	0	0	131.453511600033	131.653539799969
26543.25	100	148	4	0	47	4	15	14	1	0	0	stim016_stimuli_original_vehicles_planes_4.png	V	0	0	0	131.853526100051	132.05352299998
26643.25	100	149	4	0	47	5	9	7	0	0	0	stim010_stimuli_original_vehicles_boats_2.png	J	0	0	0	132.253556199954	132.453534399974
26743.25	100	150	4	0	47	6	15	10	1	0	1	stim016_stimuli_original_vehicles_planes_4.png	Q	0	0	0	132.653542499989	132.853544099955
26843.25	100	151	4	0	47	7	10	0	0	0	0	stim011_stimuli_original_vehicles_boats_3.png	A	0	0	0	133.053570199991	133.253554599942
26943.25	100	152	4	0	47	8	1	2	0	0	0	stim002_stimuli_original_animals_birds_2.png	C	0	0	0	133.453566899989	133.653568699956
27043.25	100	153	4	0	47	9	11	1	0	0	0	stim012_stimuli_original_vehicles_boats_4.png	B	0	0	0	133.853579799994	134.053576900042
27143.25	100	154	4	0	47	10	5	11	0	0	0	stim006_stimuli_original_animals_fish_2.png	R	0	0	0	134.253589799977	134.453588100034
27243.25	100	155	4	0	47	11	3	7	0	1	0	stim004_stimuli_original_animals_birds_4.png	J	0	0	0	134.653602699982	134.853598900023
27343.25	100	156	4	0	47	12	12	15	0	0	0	stim013_stimuli_original_vehicles_planes_1.png	Y	0	0	0	135.05361069995	135.253641000018
27443.25	100	157	4	0	47	13	2	7	0	1	0	stim003_stimuli_original_animals_birds_3.png	J	0	0	0	135.453622699948	135.653622700018
27543.25	100	158	4	0	47	14	15	8	0	0	0	stim016_stimuli_original_vehicles_planes_4.png	K	0	0	0	135.853660800029	136.053655799944
27643.25	100	159	4	0	47	15	6	5	0	0	0	stim007_stimuli_original_animals_fish_3.png	F	0	0	0	136.253643800039	136.453645800008
27743.25	100	160	4	0	47	16	7	12	0	0	0	stim008_stimuli_original_animals_fish_4.png	T	0	0	0	136.653655600036	136.853654599981
27843.25	100	161	4	0	47	17	0	4	0	0	0	stim001_stimuli_original_animals_birds_1.png	E	0	0	0	137.053666600026	137.253665699973
27943.25	100	162	4	0	47	18	4	0	0	0	0	stim005_stimuli_original_animals_fish_1.png	A	0	0	0	137.453679600032	137.653677899973
28043.25	100	163	4	0	47	19	12	7	0	0	0	stim013_stimuli_original_vehicles_planes_1.png	J	0	0	0	137.853718500002	138.053691799985
28143.25	100	164	4	0	47	20	5	6	0	0	0	stim006_stimuli_original_animals_fish_2.png	G	0	0	0	138.253671700018	138.453717899974
28243.25	100	165	4	0	47	21	8	15	0	0	0	stim009_stimuli_original_vehicles_boats_1.png	Y	0	0	0	138.653715300024	138.853720500018
28343.25	100	166	4	0	47	22	7	2	1	0	0	stim008_stimuli_original_animals_fish_4.png	C	0	0	0	139.053724500001	139.253724499955
28443.25	100	167	4	0	47	23	15	12	0	0	0	stim016_stimuli_original_vehicles_planes_4.png	T	0	0	0	139.453735499992	139.653734600055
28543.25	100	168	4	0	47	24	7	3	1	0	1	stim008_stimuli_original_animals_fish_4.png	D	0	0	0	139.853746399982	140.053752999986
28643.25	100	169	4	0	47	25	11	5	0	0	0	stim012_stimuli_original_vehicles_boats_4.png	F	0	0	0	140.253758599982	140.453775699949
28743.25	100	170	4	0	47	26	1	11	0	0	0	stim002_stimuli_original_animals_birds_2.png	R	d	140.646398399957	1	140.653768499964	140.853767700028
28843.25	100	171	4	0	47	27	2	1	0	0	0	stim003_stimuli_original_animals_birds_3.png	B	0	0	0	141.053787500015	141.253778700018
28943.25	100	172	4	0	47	28	0	10	0	0	0	stim001_stimuli_original_animals_birds_1.png	Q	0	0	0	141.453790299944	141.653790200013
29043.25	100	173	4	0	47	29	10	15	0	1	0	stim011_stimuli_original_vehicles_boats_3.png	Y	0	0	0	141.853802000056	142.053801000002
29143.25	100	174	4	0	47	30	7	9	0	0	0	stim008_stimuli_original_animals_fish_4.png	L	0	0	0	142.253807200002	142.453814900015
29243.25	100	175	4	0	47	31	14	15	0	1	0	stim015_stimuli_original_vehicles_planes_3.png	Y	0	0	0	142.65381509997	142.853822299978
29343.25	100	176	4	0	47	32	9	4	0	0	0	stim010_stimuli_original_vehicles_boats_2.png	E	0	0	0	143.053841699963	143.253836699994
29443.25	100	177	4	0	47	33	6	14	0	0	0	stim007_stimuli_original_animals_fish_3.png	V	0	0	0	143.453859600006	143.653845599969
29543.25	100	178	4	0	47	34	13	13	0	0	0	stim014_stimuli_original_vehicles_planes_2.png	U	0	0	0	143.853858100018	144.053858699976
29643.25	100	179	4	0	47	35	3	8	0	0	0	stim004_stimuli_original_animals_birds_4.png	K	0	0	0	144.253866199986	144.453866699943
30343.25	100	180	5	1	24	0	12	14	0	0	0	stim013_stimuli_original_vehicles_planes_1.png	V	0	0	0	147.053950099973	147.253946000012
30443.25	100	181	5	1	24	1	0	10	0	0	0	stim001_stimuli_original_animals_birds_1.png	Q	0	0	0	147.45395710005	147.65396060003
30543.25	100	182	5	1	24	2	4	12	0	0	0	stim005_stimuli_original_animals_fish_1.png	T	0	0	0	147.853997500031	148.053965999978
30643.25	100	183	5	1	24	3	13	5	0	0	0	stim014_stimuli_original_vehicles_planes_2.png	F	0	0	0	148.25397770002	148.453992599971
30743.25	100	184	5	1	24	4	2	6	0	0	0	stim003_stimuli_original_animals_birds_3.png	G	0	0	0	148.653995099943	148.854027300025
30843.25	100	185	5	1	24	5	3	4	0	0	0	stim004_stimuli_original_animals_birds_4.png	E	0	0	0	149.054001900018	149.254004899994
30943.25	100	186	5	1	24	6	11	15	0	0	0	stim012_stimuli_original_vehicles_boats_4.png	Y	0	0	0	149.454013300012	149.654016699991
31043.25	100	187	5	1	24	7	8	1	0	0	0	stim009_stimuli_original_vehicles_boats_1.png	B	0	0	0	149.854022899992	150.054022999946
31143.25	100	188	5	1	24	8	13	3	1	0	0	stim014_stimuli_original_vehicles_planes_2.png	D	0	0	0	150.254035699996	150.454062500037
31243.25	100	189	5	1	24	9	9	7	0	0	0	stim010_stimuli_original_vehicles_boats_2.png	J	0	0	0	150.654047499993	150.854047699948
31343.25	100	190	5	1	24	10	13	8	1	0	0	stim014_stimuli_original_vehicles_planes_2.png	K	0	0	0	151.054076700006	151.25405540003
31443.25	100	191	5	1	24	11	5	2	0	0	0	stim006_stimuli_original_animals_fish_2.png	C	0	0	0	151.454070899985	151.654071899946
31543.25	100	192	5	1	24	12	1	1	0	1	0	stim002_stimuli_original_animals_birds_2.png	B	0	0	0	151.85408119997	152.054100999958
31643.25	100	193	5	1	24	13	7	13	0	0	0	stim008_stimuli_original_animals_fish_4.png	U	0	0	0	152.254090699949	152.454088400002
31743.25	100	194	5	1	24	14	14	1	0	1	1	stim015_stimuli_original_vehicles_planes_3.png	B	0	0	0	152.654107399983	152.854100299999
31843.25	100	195	5	1	24	15	15	11	0	0	0	stim016_stimuli_original_vehicles_planes_4.png	R	0	0	0	153.054126800038	153.254114500014
31943.25	100	196	5	1	24	16	6	9	0	0	0	stim007_stimuli_original_animals_fish_3.png	L	0	0	0	153.45413009997	153.654127200018
32043.25	100	197	5	1	24	17	10	0	0	0	0	stim011_stimuli_original_vehicles_boats_3.png	A	0	0	0	153.854135800037	154.054134399979
32143.25	100	198	5	1	24	18	0	10	0	0	0	stim001_stimuli_original_animals_birds_1.png	Q	0	0	0	154.254146100022	154.454145299969
32243.25	100	199	5	1	24	19	9	6	0	0	0	stim010_stimuli_original_vehicles_boats_2.png	G	0	0	0	154.654161000042	154.854154899949
32343.25	100	200	5	1	24	20	11	15	0	0	0	stim012_stimuli_original_vehicles_boats_4.png	Y	0	0	0	155.054168700008	155.254159700009
32443.25	100	201	5	1	24	21	1	14	1	0	0	stim002_stimuli_original_animals_birds_2.png	V	0	0	0	155.454177899985	155.654185099993
32543.25	100	202	5	1	24	22	13	7	0	0	0	stim014_stimuli_original_vehicles_planes_2.png	J	0	0	0	155.854204599978	156.054189900053
32643.25	100	203	5	1	24	23	1	1	1	0	0	stim002_stimuli_original_animals_birds_2.png	B	0	0	0	156.25420299999	156.454199700034
32743.25	100	204	5	1	24	24	2	5	0	0	0	stim003_stimuli_original_animals_birds_3.png	F	0	0	0	156.654214199982	156.854215899948
32843.25	100	205	5	1	24	25	8	13	0	1	0	stim009_stimuli_original_vehicles_boats_1.png	U	0	0	0	157.054237199947	157.254225700046
32943.25	100	206	5	1	24	26	7	9	0	0	0	stim008_stimuli_original_animals_fish_4.png	L	0	0	0	157.454232800053	157.654237600043
33043.25	100	207	5	1	24	27	3	13	0	1	1	stim004_stimuli_original_animals_birds_4.png	U	0	0	0	157.854275700054	158.05424550001
33143.25	100	208	5	1	24	28	1	8	0	0	0	stim002_stimuli_original_animals_birds_2.png	K	0	0	0	158.254269700032	158.4542717
33243.25	100	209	5	1	24	29	15	11	0	0	0	stim016_stimuli_original_vehicles_planes_4.png	R	0	0	0	158.654271399952	158.854273000034
33343.25	100	210	5	1	24	30	4	3	0	0	0	stim005_stimuli_original_animals_fish_1.png	D	0	0	0	159.054281400051	159.254279999994
33443.25	100	211	5	1	24	31	6	2	0	0	0	stim007_stimuli_original_animals_fish_3.png	C	0	0	0	159.454293100047	159.654291999992
33543.25	100	212	5	1	24	32	5	13	0	0	0	stim006_stimuli_original_animals_fish_2.png	U	0	0	0	159.854301100015	160.054312300053
33643.25	100	213	5	1	24	33	12	4	0	0	0	stim013_stimuli_original_vehicles_planes_1.png	E	0	0	0	160.254312900011	160.45434409997
33743.25	100	214	5	1	24	34	10	0	0	0	0	stim011_stimuli_original_vehicles_boats_3.png	A	0	0	0	160.654326700023	160.854326499975
33843.25	100	215	5	1	24	35	14	12	0	0	0	stim015_stimuli_original_vehicles_planes_3.png	T	0	0	0	161.054352100007	161.254336599959
35572.5	100	216	6	0	8	0	1	15	0	0	0	stim002_stimuli_original_animals_birds_2.png	Y	0	0	0	167.971224899986	168.171182499966
35672.5	100	217	6	0	8	1	15	13	0	0	0	stim016_stimuli_original_vehicles_planes_4.png	U	0	0	0	168.371208900004	168.571194999968
35772.5	100	218	6	0	8	2	3	3	0	0	0	stim004_stimuli_original_animals_birds_4.png	D	0	0	0	168.771206100006	168.971206999966
35872.5	100	219	6	0	8	3	0	5	0	0	0	stim001_stimuli_original_animals_birds_1.png	F	0	0	0	169.171217399999	169.37121719995
35972.5	100	220	6	0	8	4	7	2	0	0	0	stim008_stimuli_original_animals_fish_4.png	C	0	0	0	169.571232800023	169.771228899946
36072.5	100	221	6	0	8	5	2	4	0	1	0	stim003_stimuli_original_animals_birds_3.png	E	0	0	0	169.971239099978	170.171240799944
36172.5	100	222	6	0	8	6	9	8	0	0	0	stim010_stimuli_original_vehicles_boats_2.png	K	0	0	0	170.371252599987	170.571250000037
36272.5	100	223	6	0	8	7	8	4	0	1	0	stim009_stimuli_original_vehicles_boats_1.png	E	0	0	0	170.771262999973	170.97126609995
36372.5	100	224	6	0	8	8	4	12	1	0	0	stim005_stimuli_original_animals_fish_1.png	T	0	0	0	171.171274499968	171.371273900033
36472.5	100	225	6	0	8	9	12	10	0	0	0	stim013_stimuli_original_vehicles_planes_1.png	Q	0	0	0	171.571283200057	171.771282400005
36572.5	100	226	6	0	8	10	4	9	1	0	1	stim005_stimuli_original_animals_fish_1.png	L	0	0	0	171.971295000054	172.17129540001
36672.5	100	227	6	0	8	11	10	6	0	0	0	stim011_stimuli_original_vehicles_boats_3.png	G	0	0	0	172.37130670005	172.571305899997
36772.5	100	228	6	0	8	12	11	14	0	0	0	stim012_stimuli_original_vehicles_boats_4.png	V	0	0	0	172.771317800041	172.971321000019
36872.5	100	229	6	0	8	13	13	4	0	0	0	stim014_stimuli_original_vehicles_planes_2.png	E	0	0	0	173.171332399943	173.371328999987
36972.5	100	230	6	0	8	14	6	11	0	0	0	stim007_stimuli_original_animals_fish_3.png	R	0	0	0	173.571340500028	173.771339699975
37072.5	100	231	6	0	8	15	14	7	0	0	0	stim015_stimuli_original_vehicles_planes_3.png	J	0	0	0	173.971351600019	174.171349699958
37172.5	100	232	6	0	8	16	5	0	0	0	0	stim006_stimuli_original_animals_fish_2.png	A	0	0	0	174.371362200007	174.57136079995
37272.5	100	233	6	0	8	17	4	1	0	0	0	stim005_stimuli_original_animals_fish_1.png	B	0	0	0	174.77137620002	174.971379099996
37372.5	100	234	6	0	8	18	1	4	0	0	0	stim002_stimuli_original_animals_birds_2.png	E	0	0	0	175.171386100003	175.371384199942
37472.5	100	235	6	0	8	19	0	5	0	0	0	stim001_stimuli_original_animals_birds_1.png	F	0	0	0	175.571395099978	175.771394700045
37572.5	100	236	6	0	8	20	7	14	0	0	0	stim008_stimuli_original_animals_fish_4.png	V	0	0	0	175.971407199977	176.171406700043
37672.5	100	237	6	0	8	21	11	6	0	0	0	stim012_stimuli_original_vehicles_boats_4.png	G	0	0	0	176.371435799985	176.571429800009
37772.5	100	238	6	0	8	22	4	13	0	0	0	stim005_stimuli_original_animals_fish_1.png	U	0	0	0	176.771438900032	176.971434099949
37872.5	100	239	6	0	8	23	14	11	0	0	0	stim015_stimuli_original_vehicles_planes_3.png	R	0	0	0	177.171439699945	177.371440300019
37972.5	100	240	6	0	8	24	6	10	0	0	0	stim007_stimuli_original_animals_fish_3.png	Q	0	0	0	177.571450500051	177.771451000008
38072.5	100	241	6	0	8	25	9	4	0	1	0	stim010_stimuli_original_vehicles_boats_2.png	E	d	177.964071900002	0	177.971486599999	178.171463800012
38172.5	100	242	6	0	8	26	10	12	0	0	0	stim011_stimuli_original_vehicles_boats_3.png	T	0	0	0	178.371474700049	178.571473199991
38272.5	100	243	6	0	8	27	12	4	0	1	0	stim013_stimuli_original_vehicles_planes_1.png	E	0	0	0	178.771496300003	178.97148409998
38372.5	100	244	6	0	8	28	4	8	1	0	0	stim005_stimuli_original_animals_fish_1.png	K	0	0	0	179.171496100025	179.371494199964
38472.5	100	245	6	0	8	29	8	9	0	0	0	stim009_stimuli_original_vehicles_boats_1.png	L	0	0	0	179.571505900007	179.771506699966
38572.5	100	246	6	0	8	30	4	2	1	0	1	stim005_stimuli_original_animals_fish_1.png	C	d	179.964124400052	1	179.971516899997	180.171518299961
38672.75	100	247	6	0	8	31	2	7	0	0	0	stim003_stimuli_original_animals_birds_3.png	J	0	0	0	180.371532400022	180.571528899949
38772.75	100	248	6	0	8	32	5	0	0	0	0	stim006_stimuli_original_animals_fish_2.png	A	0	0	0	180.771540999995	180.97154129995
38872.75	100	249	6	0	8	33	3	3	0	0	0	stim004_stimuli_original_animals_birds_4.png	D	0	0	0	181.171548599959	181.371549900039
38972.75	100	250	6	0	8	34	13	15	0	0	0	stim014_stimuli_original_vehicles_planes_2.png	Y	0	0	0	181.571562799974	181.771560100024
39072.75	100	251	6	0	8	35	15	1	0	0	0	stim016_stimuli_original_vehicles_planes_4.png	B	0	0	0	181.971572399954	182.171573400032
39847.75	100	252	7	1	3	0	13	9	0	0	0	stim014_stimuli_original_vehicles_planes_2.png	L	0	0	0	185.071663600043	185.271687599947
39947.75	100	253	7	1	3	1	5	6	0	0	0	stim006_stimuli_original_animals_fish_2.png	G	0	0	0	185.471672100015	185.671674799989
40047.75	100	254	7	1	3	2	10	3	0	0	0	stim011_stimuli_original_vehicles_boats_3.png	D	0	0	0	185.871686200029	186.07168459997
40147.75	100	255	7	1	3	3	14	11	0	0	0	stim015_stimuli_original_vehicles_planes_3.png	R	0	0	0	186.271693599992	186.471692700055
40247.75	100	256	7	1	3	4	2	10	1	0	0	stim003_stimuli_original_animals_birds_3.png	Q	0	0	0	186.671704699984	186.871705200057
40347.75	100	257	7	1	3	5	8	0	0	0	0	stim009_stimuli_original_vehicles_boats_1.png	A	0	0	0	187.071716999984	187.271716000047
40447.75	100	258	7	1	3	6	2	13	1	0	0	stim003_stimuli_original_animals_birds_3.png	U	0	0	0	187.471729299985	187.671730699949
40547.75	100	259	7	1	3	7	12	2	0	0	0	stim013_stimuli_original_vehicles_planes_1.png	C	0	0	0	187.871738499962	188.071738400031
40647.75	100	260	7	1	3	8	9	14	0	0	0	stim010_stimuli_original_vehicles_boats_2.png	V	0	0	0	188.271750699962	188.471749800025
40747.75	100	261	7	1	3	9	15	4	0	0	0	stim016_stimuli_original_vehicles_planes_4.png	E	0	0	0	188.671760699945	188.871760600014
40847.75	100	262	7	1	3	10	2	12	0	0	0	stim003_stimuli_original_animals_birds_3.png	T	0	0	0	189.071772899944	189.271770899999
40947.75	100	263	7	1	3	11	7	6	0	1	0	stim008_stimuli_original_animals_fish_4.png	G	0	0	0	189.471786299953	189.671782799996
41047.75	100	264	7	1	3	12	1	1	0	0	0	stim002_stimuli_original_animals_birds_2.png	B	0	0	0	189.871793500031	190.071796400007
41147.75	100	265	7	1	3	13	0	6	0	1	1	stim001_stimuli_original_animals_birds_1.png	G	0	0	0	190.271809499944	190.471806899994
41247.75	100	266	7	1	3	14	6	15	0	0	0	stim007_stimuli_original_animals_fish_3.png	Y	0	0	0	190.671818000032	190.871821800014
41347.75	100	267	7	1	3	15	4	8	0	0	0	stim005_stimuli_original_animals_fish_1.png	K	0	0	0	191.071828400018	191.271827299963
41447.75	100	268	7	1	3	16	3	5	0	0	0	stim004_stimuli_original_animals_birds_4.png	F	0	0	0	191.471839200007	191.671839399962
41547.75	100	269	7	1	3	17	11	7	0	0	0	stim012_stimuli_original_vehicles_boats_4.png	J	0	0	0	191.87185190001	192.071852099965
41647.75	100	270	7	1	3	18	7	11	0	0	0	stim008_stimuli_original_animals_fish_4.png	R	0	0	0	192.271862399997	192.471861699945
41747.75	100	271	7	1	3	19	5	3	0	0	0	stim006_stimuli_original_animals_fish_2.png	D	0	0	0	192.671875400003	192.871872300049
41847.75	100	272	7	1	3	20	8	4	0	0	0	stim009_stimuli_original_vehicles_boats_1.png	E	0	0	0	193.071884699981	193.271900999942
41947.75	100	273	7	1	3	21	15	6	0	0	0	stim016_stimuli_original_vehicles_planes_4.png	G	0	0	0	193.471894699964	193.671895400039
42047.75	100	274	7	1	3	22	6	0	1	0	0	stim007_stimuli_original_animals_fish_3.png	A	0	0	0	193.871904899948	194.071907100035
42147.75	100	275	7	1	3	23	1	1	0	0	0	stim002_stimuli_original_animals_birds_2.png	B	0	0	0	194.271917799953	194.471920500044
42247.75	100	276	7	1	3	24	6	7	1	0	0	stim007_stimuli_original_animals_fish_3.png	J	0	0	0	194.671926700044	194.871931500034
42347.75	100	277	7	1	3	25	12	2	0	0	0	stim013_stimuli_original_vehicles_planes_1.png	C	0	0	0	195.071938800043	195.271938799997
42447.75	100	278	7	1	3	26	4	15	0	0	0	stim005_stimuli_original_animals_fish_1.png	Y	0	0	0	195.471951500047	195.671949499985
42547.75	100	279	7	1	3	27	14	9	0	0	0	stim015_stimuli_original_vehicles_planes_3.png	L	0	0	0	195.871962300036	196.071962899994
42647.75	100	280	7	1	3	28	2	12	0	0	0	stim003_stimuli_original_animals_birds_3.png	T	0	0	0	196.271972500021	196.471971599967
42747.75	100	281	7	1	3	29	13	2	0	1	0	stim014_stimuli_original_vehicles_planes_2.png	C	0	0	0	196.671986100031	196.871983799967
42847.75	100	282	7	1	3	30	0	8	0	0	0	stim001_stimuli_original_animals_birds_1.png	K	0	0	0	197.071996300016	197.272009799955
42947.75	100	283	7	1	3	31	10	2	0	1	1	stim011_stimuli_original_vehicles_boats_3.png	C	0	0	0	197.472018899978	197.672017400037
43047.75	100	284	7	1	3	32	11	14	0	0	0	stim012_stimuli_original_vehicles_boats_4.png	V	0	0	0	197.872047099983	198.072029400035
43147.75	100	285	7	1	3	33	3	10	0	0	0	stim004_stimuli_original_animals_birds_4.png	Q	0	0	0	198.272042799974	198.472040000022
43247.75	100	286	7	1	3	34	6	5	0	0	0	stim007_stimuli_original_animals_fish_3.png	F	d	198.863843600033	1	198.672050300054	198.872052500024
43347.75	100	287	7	1	3	35	9	13	0	0	0	stim010_stimuli_original_vehicles_boats_2.png	U	0	0	0	199.072063899948	199.272061600001
58923.25	100	288	8	0	1	0	4	6	0	0	0	stim005_stimuli_original_animals_fish_1.png	G	0	0	0	261.373818199965	261.573815400014
59023.25	100	289	8	0	1	1	11	13	0	0	0	stim012_stimuli_original_vehicles_boats_4.png	U	0	0	0	261.773814699962	261.973824599991
59123.25	100	290	8	0	1	2	10	12	0	0	0	stim011_stimuli_original_vehicles_boats_3.png	T	0	0	0	262.173836300033	262.373836499988
59223.25	100	291	8	0	1	3	13	1	0	0	0	stim014_stimuli_original_vehicles_planes_2.png	B	0	0	0	262.573846200015	262.773845999967
59323.25	100	292	8	0	1	4	7	9	0	0	0	stim008_stimuli_original_animals_fish_4.png	L	0	0	0	262.973862800049	263.17384199996
59423.25	100	293	8	0	1	5	1	3	0	1	0	stim002_stimuli_original_animals_birds_2.png	D	0	0	0	263.373856700025	263.573867000057
59523.25	100	294	8	0	1	6	12	8	0	0	0	stim013_stimuli_original_vehicles_planes_1.png	K	0	0	0	263.773886800045	263.97388039995
59623.25	100	295	8	0	1	7	0	3	1	1	0	stim001_stimuli_original_animals_birds_1.png	D	0	0	0	264.173889499973	264.373858500039
59723.25	100	296	8	0	1	8	5	14	0	0	0	stim006_stimuli_original_animals_fish_2.png	V	0	0	0	264.573900299962	264.773900900036
59823.25	100	297	8	0	1	9	0	15	1	0	1	stim001_stimuli_original_animals_birds_1.png	Y	0	0	0	264.97391499998	265.17391230003
59923.25	100	298	8	0	1	10	15	7	0	0	0	stim016_stimuli_original_vehicles_planes_4.png	J	d	265.565742000006	1	265.373924299958	265.573922600015
60023.25	100	299	8	0	1	11	6	3	0	0	0	stim007_stimuli_original_animals_fish_3.png	D	0	0	0	265.773935799953	265.973919300013
60123.25	100	300	8	0	1	12	14	2	0	0	0	stim015_stimuli_original_vehicles_planes_3.png	C	0	0	0	266.17393030005	266.37395160005
60223.25	100	301	8	0	1	13	3	0	0	0	0	stim004_stimuli_original_animals_birds_4.png	A	0	0	0	266.573954200023	266.773955699988
60323.25	100	302	8	0	1	14	0	5	0	0	0	stim001_stimuli_original_animals_birds_1.png	F	0	0	0	266.97396740003	267.173970400007
60423.25	100	303	8	0	1	15	8	10	0	0	0	stim009_stimuli_original_vehicles_boats_1.png	Q	0	0	0	267.373981500044	267.573979899986
60523.25	100	304	8	0	1	16	2	11	0	0	0	stim003_stimuli_original_animals_birds_3.png	R	0	0	0	267.773989000008	267.973991099978
60623.25	100	305	8	0	1	17	9	4	0	0	0	stim010_stimuli_original_vehicles_boats_2.png	E	0	0	0	268.174007799942	268.374001199962
60723.25	100	306	8	0	1	18	4	9	0	0	0	stim005_stimuli_original_animals_fish_1.png	L	0	0	0	268.574017400038	268.774015299976
60823.25	100	307	8	0	1	19	11	2	0	0	0	stim012_stimuli_original_vehicles_boats_4.png	C	0	0	0	268.974023899995	269.17401149997
60923.25	100	308	8	0	1	20	10	8	0	0	0	stim011_stimuli_original_vehicles_boats_3.png	K	0	0	0	269.37403549999	269.574038299965
61023.25	100	309	8	0	1	21	5	0	0	0	0	stim006_stimuli_original_animals_fish_2.png	A	0	0	0	269.774046199978	269.974046200048
61123.25	100	310	8	0	1	22	0	3	0	0	0	stim001_stimuli_original_animals_birds_1.png	D	0	0	0	270.174059199984	270.374061499955
61223.25	100	311	8	0	1	23	2	14	0	0	0	stim003_stimuli_original_animals_birds_3.png	V	0	0	0	270.574068499962	270.77407309995
61323.25	100	312	8	0	1	24	3	6	0	0	0	stim004_stimuli_original_animals_birds_4.png	G	0	0	0	270.974069499993	271.174086699961
61423.25	100	313	8	0	1	25	7	15	0	0	0	stim008_stimuli_original_animals_fish_4.png	Y	0	0	0	271.374075999949	271.574089900008
61523.25	100	314	8	0	1	26	15	0	0	1	0	stim016_stimuli_original_vehicles_planes_4.png	A	0	0	0	271.774106799974	271.97410230001
61623.25	100	315	8	0	1	27	14	5	0	0	0	stim015_stimuli_original_vehicles_planes_3.png	F	0	0	0	272.174111900036	272.374111799989
61723.25	100	316	8	0	1	28	3	0	1	1	0	stim004_stimuli_original_animals_birds_4.png	A	0	0	0	272.574115199968	272.774128400022
61823.25	100	317	8	0	1	29	8	12	0	0	0	stim009_stimuli_original_vehicles_boats_1.png	T	0	0	0	272.974134300021	273.174108800013
61923.25	100	318	8	0	1	30	3	1	1	0	1	stim004_stimuli_original_animals_birds_4.png	B	0	0	0	273.374151300057	273.574151400011
62023.25	100	319	8	0	1	31	9	7	0	0	0	stim010_stimuli_original_vehicles_boats_2.png	J	d	273.965966499993	1	273.774175800034	273.974155199947
62123.25	100	320	8	0	1	32	1	13	0	0	0	stim002_stimuli_original_animals_birds_2.png	U	0	0	0	274.174175999942	274.374174700002
62223.25	100	321	8	0	1	33	12	10	0	0	0	stim013_stimuli_original_vehicles_planes_1.png	Q	0	0	0	274.57418450003	274.774178700056
62323.25	100	322	8	0	1	34	13	11	0	0	0	stim014_stimuli_original_vehicles_planes_2.png	R	0	0	0	274.974190999987	275.174192799954
62423.25	100	323	8	0	1	35	6	4	0	0	0	stim007_stimuli_original_animals_fish_3.png	E	0	0	0	275.374201299972	275.574206499965
65110.75	100	324	9	1	4	0	13	15	0	0	0	stim014_stimuli_original_vehicles_planes_2.png	Y	0	0	0	286.124490999966	286.324487900012
65210.75	100	325	9	1	4	1	0	4	0	0	0	stim001_stimuli_original_animals_birds_1.png	E	0	0	0	286.524497200036	286.724500600016
65310.75	100	326	9	1	4	2	8	5	0	0	0	stim009_stimuli_original_vehicles_boats_1.png	F	0	0	0	286.924509200035	287.124517900054
65410.75	100	327	9	1	4	3	6	6	0	0	0	stim007_stimuli_original_animals_fish_3.png	G	0	0	0	287.324522500043	287.524520899984
65510.75	100	328	9	1	4	4	3	11	0	0	0	stim004_stimuli_original_animals_birds_4.png	R	0	0	0	287.724536400056	287.924531599972
65610.75	100	329	9	1	4	5	7	2	0	0	0	stim008_stimuli_original_animals_fish_4.png	C	0	0	0	288.124542100006	288.324541399954
65710.75	100	330	9	1	4	6	5	14	0	0	0	stim006_stimuli_original_animals_fish_2.png	V	0	0	0	288.524551899987	288.724553599954
65810.75	100	331	9	1	4	7	10	12	0	1	0	stim011_stimuli_original_vehicles_boats_3.png	T	0	0	0	288.924565699999	289.12456539995
65910.75	100	332	9	1	4	8	15	1	0	0	0	stim016_stimuli_original_vehicles_planes_4.png	B	0	0	0	289.324561299989	289.524574900046
66010.75	100	333	9	1	4	9	5	12	1	1	1	stim006_stimuli_original_animals_fish_2.png	T	0	0	0	289.7245903	289.924588699942
66110.75	100	334	9	1	4	10	14	7	0	0	0	stim015_stimuli_original_vehicles_planes_3.png	J	d	290.316389000043	1	290.124596799957	290.32461120002
66210.75	100	335	9	1	4	11	5	9	1	0	0	stim006_stimuli_original_animals_fish_2.png	L	0	0	0	290.524608799955	290.724608800025
66310.75	100	336	9	1	4	12	11	13	0	0	0	stim012_stimuli_original_vehicles_boats_4.png	U	0	0	0	290.924619899946	291.124620600021
66410.75	100	337	9	1	4	13	12	12	0	0	0	stim013_stimuli_original_vehicles_planes_1.png	T	0	0	0	291.324631100055	291.524634100031
66510.75	100	338	9	1	4	14	4	0	0	0	0	stim005_stimuli_original_animals_fish_1.png	A	0	0	0	291.724642400048	291.924645700026
66610.75	100	339	9	1	4	15	2	8	0	0	0	stim003_stimuli_original_animals_birds_3.png	K	0	0	0	292.124652100028	292.324653699994
66710.75	100	340	9	1	4	16	1	3	0	0	0	stim002_stimuli_original_animals_birds_2.png	D	0	0	0	292.524692700012	292.724664899986
66810.75	100	341	9	1	4	17	9	10	0	0	0	stim010_stimuli_original_vehicles_boats_2.png	Q	0	0	0	292.924672499998	293.124662599992
66910.75	100	342	9	1	4	18	10	9	0	0	0	stim011_stimuli_original_vehicles_boats_3.png	L	0	0	0	293.324675800046	293.524676400004
67010.75	100	343	9	1	4	19	3	1	0	0	0	stim004_stimuli_original_animals_birds_4.png	B	0	0	0	293.724684700021	293.924686299986
67110.75	100	344	9	1	4	20	8	2	0	0	0	stim009_stimuli_original_vehicles_boats_1.png	C	0	0	0	294.124699800042	294.324695399962
67210.75	100	345	9	1	4	21	0	4	0	0	0	stim001_stimuli_original_animals_birds_1.png	E	0	0	0	294.524727100041	294.724710199982
67310.75	100	346	9	1	4	22	12	12	0	0	0	stim013_stimuli_original_vehicles_planes_1.png	T	0	0	0	294.924718399998	295.124725400005
67410.75	100	347	9	1	4	23	13	11	0	0	0	stim014_stimuli_original_vehicles_planes_2.png	R	0	0	0	295.324733100017	295.524729200057
67510.75	100	348	9	1	4	24	9	5	0	1	0	stim010_stimuli_original_vehicles_boats_2.png	F	0	0	0	295.724745700019	295.924741000053
67610.75	100	349	9	1	4	25	7	14	0	0	0	stim008_stimuli_original_animals_fish_4.png	V	0	0	0	296.12475279998	296.324753000052
67710.75	100	350	9	1	4	26	12	5	1	1	1	stim013_stimuli_original_vehicles_planes_1.png	F	0	0	0	296.524764599977	296.724765300052
67810.75	100	351	9	1	4	27	1	15	0	0	0	stim002_stimuli_original_animals_birds_2.png	Y	d	297.116569599952	1	296.924778199987	297.124788700021
67910.75	100	352	9	1	4	28	12	10	1	0	0	stim013_stimuli_original_vehicles_planes_1.png	Q	0	0	0	297.324786499958	297.524786500027
68010.75	100	353	9	1	4	29	14	5	0	0	0	stim015_stimuli_original_vehicles_planes_3.png	F	0	0	0	297.724797299947	297.924798800028
68110.75	100	354	9	1	4	30	2	7	0	0	0	stim003_stimuli_original_animals_birds_3.png	J	0	0	0	298.124809199944	298.324808800011
68210.75	100	355	9	1	4	31	11	3	0	0	0	stim012_stimuli_original_vehicles_boats_4.png	D	0	0	0	298.524819900049	298.72482220002
68310.75	100	356	9	1	4	32	6	6	0	0	0	stim007_stimuli_original_animals_fish_3.png	G	0	0	0	298.924832200049	299.124834700022
68410.75	100	357	9	1	4	33	5	8	0	0	0	stim006_stimuli_original_animals_fish_2.png	K	0	0	0	299.324875000049	299.524883099948
68510.75	100	358	9	1	4	34	4	0	0	0	0	stim005_stimuli_original_animals_fish_1.png	A	0	0	0	299.724855200038	299.924868799979
68610.75	100	359	9	1	4	35	15	13	0	0	0	stim016_stimuli_original_vehicles_planes_4.png	U	0	0	0	300.124866500031	300.324876599945
70886	100	360	10	0	21	0	6	7	0	0	0	stim007_stimuli_original_animals_fish_3.png	J	0	0	0	309.225121199968	309.425120800035
70986	100	361	10	0	21	1	3	15	0	0	0	stim004_stimuli_original_animals_birds_4.png	Y	0	0	0	309.625144500053	309.825129600009
71086	100	362	10	0	21	2	0	3	0	0	0	stim001_stimuli_original_animals_birds_1.png	D	0	0	0	310.025141500053	310.225145400036
71186	100	363	10	0	21	3	2	6	0	0	0	stim003_stimuli_original_animals_birds_3.png	G	0	0	0	310.425151100033	310.625153400004
71286	100	364	10	0	21	4	5	14	0	0	0	stim006_stimuli_original_animals_fish_2.png	V	0	0	0	310.825163600035	311.025163199985
71386	100	365	10	0	21	5	12	8	0	1	0	stim013_stimuli_original_vehicles_planes_1.png	K	0	0	0	311.225174800027	311.425173699972
71486	100	366	10	0	21	6	14	4	0	0	0	stim015_stimuli_original_vehicles_planes_3.png	E	0	0	0	311.625186600024	311.825207800022
71586	100	367	10	0	21	7	15	8	0	1	0	stim016_stimuli_original_vehicles_planes_4.png	K	0	0	0	312.025196500006	312.225202600006
71686	100	368	10	0	21	8	13	13	0	0	0	stim014_stimuli_original_vehicles_planes_2.png	U	0	0	0	312.425205999985	312.6252599
71786	100	369	10	0	21	9	5	9	1	0	0	stim006_stimuli_original_animals_fish_2.png	L	0	0	0	312.825226000044	313.02521969995
71886	100	370	10	0	21	10	10	12	0	0	0	stim011_stimuli_original_vehicles_boats_3.png	T	0	0	0	313.225227799965	313.425243000034
71986	100	371	10	0	21	11	5	1	1	0	1	stim006_stimuli_original_animals_fish_2.png	B	0	0	0	313.625241899979	313.82524200005
72086	100	372	10	0	21	12	8	8	0	0	0	stim009_stimuli_original_vehicles_boats_1.png	K	0	0	0	314.025252699968	314.22525420005
72186	100	373	10	0	21	13	11	2	0	0	0	stim012_stimuli_original_vehicles_boats_4.png	C	d	314.417828000034	1	314.425294599961	314.62526510004
72286	100	374	10	0	21	14	1	0	0	0	0	stim002_stimuli_original_animals_birds_2.png	A	0	0	0	314.825275899959	315.025291000027
72386	100	375	10	0	21	15	4	11	0	0	0	stim005_stimuli_original_animals_fish_1.png	R	0	0	0	315.225286299945	315.425297299982
72486	100	376	10	0	21	16	7	5	0	0	0	stim008_stimuli_original_animals_fish_4.png	F	0	0	0	315.625297200051	315.825323999976
72586	100	377	10	0	21	17	9	10	0	0	0	stim010_stimuli_original_vehicles_boats_2.png	Q	0	0	0	316.025312099955	316.225308900001
72686	100	378	10	0	21	18	10	9	0	0	0	stim011_stimuli_original_vehicles_boats_3.png	L	0	0	0	316.425320500042	316.625319199986
72786	100	379	10	0	21	19	5	7	0	0	0	stim006_stimuli_original_animals_fish_2.png	J	0	0	0	316.82533110003	317.025369700044
72886	100	380	10	0	21	20	11	4	0	0	0	stim012_stimuli_original_vehicles_boats_4.png	E	0	0	0	317.225344000035	317.425341899972
72986	100	381	10	0	21	21	0	1	0	0	0	stim001_stimuli_original_animals_birds_1.png	B	0	0	0	317.625370300026	317.825352899963
73086	100	382	10	0	21	22	2	11	0	0	0	stim003_stimuli_original_animals_birds_3.png	R	0	0	0	318.025362299988	318.225362399942
73186	100	383	10	0	21	23	8	8	0	0	0	stim009_stimuli_original_vehicles_boats_1.png	K	0	0	0	318.425376700005	318.625374400057
73286	100	384	10	0	21	24	1	5	0	1	0	stim002_stimuli_original_animals_birds_2.png	F	0	0	0	318.825385399978	319.025386500056
73386	100	385	10	0	21	25	12	10	0	0	0	stim013_stimuli_original_vehicles_planes_1.png	Q	0	0	0	319.22539799998	319.425401899964
73486	100	386	10	0	21	26	9	5	0	1	0	stim010_stimuli_original_vehicles_boats_2.png	F	0	0	0	319.62542149995	319.82540890004
73586	100	387	10	0	21	27	13	13	0	0	0	stim014_stimuli_original_vehicles_planes_2.png	U	0	0	0	320.02541849995	320.225431800005
73686	100	388	10	0	21	28	8	15	1	0	0	stim009_stimuli_original_vehicles_boats_1.png	Y	0	0	0	320.425429799943	320.625430300017
73786	100	389	10	0	21	29	4	14	0	0	0	stim005_stimuli_original_animals_fish_1.png	V	0	0	0	320.825447399984	321.025441100006
73886	100	390	10	0	21	30	8	12	1	0	1	stim009_stimuli_original_vehicles_boats_1.png	T	0	0	0	321.225454099942	321.425450999988
73986	100	391	10	0	21	31	14	5	0	0	0	stim015_stimuli_original_vehicles_planes_3.png	F	0	0	0	321.625464600045	321.825505099958
74086	100	392	10	0	21	32	6	2	0	0	0	stim007_stimuli_original_animals_fish_3.png	C	d	322.018058300018	1	322.025473600021	322.225475499989
74186	100	393	10	0	21	33	3	0	0	0	0	stim004_stimuli_original_animals_birds_4.png	A	0	0	0	322.425502600032	322.625484999968
74286	100	394	10	0	21	34	15	3	0	0	0	stim016_stimuli_original_vehicles_planes_4.png	D	0	0	0	322.825504399952	323.025496799964
74386	100	395	10	0	21	35	7	6	0	0	0	stim008_stimuli_original_animals_fish_4.png	G	0	0	0	323.225511800032	323.425508899963
75306.75	100	396	11	1	23	0	11	3	0	0	0	stim012_stimuli_original_vehicles_boats_4.png	D	0	0	0	326.908981299959	327.108978000004
75406.75	100	397	11	1	23	1	6	6	0	0	0	stim007_stimuli_original_animals_fish_3.png	G	0	0	0	327.308987200027	327.508987499983
75506.75	100	398	11	1	23	2	5	12	0	0	0	stim006_stimuli_original_animals_fish_2.png	T	0	0	0	327.70899720001	327.908997599967
75606.75	100	399	11	1	23	3	12	2	0	0	0	stim013_stimuli_original_vehicles_planes_1.png	C	0	0	0	328.10900539998	328.309006799944
75706.75	100	400	11	1	23	4	3	4	1	0	0	stim004_stimuli_original_animals_birds_4.png	E	0	0	0	328.509019399993	328.70902119996
75806.75	100	401	11	1	23	5	14	13	0	0	0	stim015_stimuli_original_vehicles_planes_3.png	U	0	0	0	328.909030499985	329.109031499946
75906.75	100	402	11	1	23	6	3	1	1	0	0	stim004_stimuli_original_animals_birds_4.png	B	0	0	0	329.309040399967	329.509042600053
76006.75	100	403	11	1	23	7	13	10	0	0	0	stim014_stimuli_original_vehicles_planes_2.png	Q	0	0	0	329.709053499973	329.909052000032
76106.75	100	404	11	1	23	8	1	0	0	0	0	stim002_stimuli_original_animals_birds_2.png	A	0	0	0	330.109058500035	330.309063900029
76207	100	405	11	1	23	9	4	3	0	1	0	stim005_stimuli_original_animals_fish_1.png	D	0	0	0	330.50907489995	330.70906220004
76307	100	406	11	1	23	10	3	7	0	0	0	stim004_stimuli_original_animals_birds_4.png	J	0	0	0	330.909086899948	331.109092899947
76407	100	407	11	1	23	11	10	3	0	1	1	stim011_stimuli_original_vehicles_boats_3.png	D	0	0	0	331.309098100057	331.509099000017
76507	100	408	11	1	23	12	8	15	0	0	0	stim009_stimuli_original_vehicles_boats_1.png	Y	0	0	0	331.709107600036	331.909106099978
76607	100	409	11	1	23	13	9	11	0	0	0	stim010_stimuli_original_vehicles_boats_2.png	R	d	332.101730399998	1	332.109119800036	332.309121099999
76707	100	410	11	1	23	14	7	14	0	0	0	stim008_stimuli_original_animals_fish_4.png	V	0	0	0	332.509135499946	332.709157099947
76807	100	411	11	1	23	15	0	9	0	0	0	stim001_stimuli_original_animals_birds_1.png	L	0	0	0	332.909142800025	333.109143699985
76907	100	412	11	1	23	16	15	5	0	0	0	stim016_stimuli_original_vehicles_planes_4.png	F	0	0	0	333.309152900008	333.50915389997
77007	100	413	11	1	23	17	2	8	0	0	0	stim003_stimuli_original_animals_birds_3.png	K	0	0	0	333.709166000015	333.909162399941
77107	100	414	11	1	23	18	8	2	0	0	0	stim009_stimuli_original_vehicles_boats_1.png	C	0	0	0	334.109177400009	334.309179899981
77207	100	415	11	1	23	19	5	15	0	0	0	stim006_stimuli_original_animals_fish_2.png	Y	0	0	0	334.509184899973	334.709183800034
77307	100	416	11	1	23	20	9	0	0	0	0	stim010_stimuli_original_vehicles_boats_2.png	A	0	0	0	334.909203600022	335.109178100014
77407	100	417	11	1	23	21	14	7	0	0	0	stim015_stimuli_original_vehicles_planes_3.png	J	0	0	0	335.309190199943	335.509194800048
77507	100	418	11	1	23	22	11	9	0	0	0	stim012_stimuli_original_vehicles_boats_4.png	L	0	0	0	335.709201300051	335.90920200001
77607	100	419	11	1	23	23	15	8	0	0	0	stim016_stimuli_original_vehicles_planes_4.png	K	0	0	0	336.109213700052	336.309212399996
77707	100	420	11	1	23	24	3	10	1	0	0	stim004_stimuli_original_animals_birds_4.png	Q	0	0	0	336.509222200024	336.709227900021
77807	100	421	11	1	23	25	7	3	0	0	0	stim008_stimuli_original_animals_fish_4.png	D	0	0	0	336.909236100037	337.109248999972
77907	100	422	11	1	23	26	3	4	1	0	0	stim004_stimuli_original_animals_birds_4.png	E	0	0	0	337.309245500015	337.509246199974
78007	100	423	11	1	23	27	0	1	0	0	0	stim001_stimuli_original_animals_birds_1.png	B	0	0	0	337.709259900032	337.909255199949
78107	100	424	11	1	23	28	10	13	0	0	0	stim011_stimuli_original_vehicles_boats_3.png	U	0	0	0	338.109267599997	338.309265500051
78207	100	425	11	1	23	29	1	3	0	1	0	stim002_stimuli_original_animals_birds_2.png	D	0	0	0	338.509278799989	338.709277100046
78307	100	426	11	1	23	30	13	14	0	0	0	stim014_stimuli_original_vehicles_planes_2.png	V	0	0	0	338.909287599963	339.10929199995
78407	100	427	11	1	23	31	4	3	0	1	1	stim005_stimuli_original_animals_fish_1.png	D	0	0	0	339.309302599984	339.509301200043
78507	100	428	11	1	23	32	2	12	0	0	0	stim003_stimuli_original_animals_birds_3.png	T	d	339.901144000003	1	339.709314899985	339.909314700053
78607	100	429	11	1	23	33	12	5	0	0	0	stim013_stimuli_original_vehicles_planes_1.png	F	0	0	0	340.109321499942	340.309322800022
78707	100	430	11	1	23	34	6	6	0	0	0	stim007_stimuli_original_animals_fish_3.png	G	0	0	0	340.509333500057	340.70935010002
78807	100	431	11	1	23	35	3	11	0	0	0	stim004_stimuli_original_animals_birds_4.png	R	0	0	0	340.909346199944	341.109344600001
81648.75	100	432	12	0	13	0	8	8	0	0	0	stim009_stimuli_original_vehicles_boats_1.png	K	0	0	0	352.276345300023	352.476342599955
81748.75	100	433	12	0	13	1	13	10	0	0	0	stim014_stimuli_original_vehicles_planes_2.png	Q	0	0	0	352.676354800002	352.876357299974
81848.75	100	434	12	0	13	2	5	7	0	0	0	stim006_stimuli_original_animals_fish_2.png	J	0	0	0	353.076363899978	353.276362800039
81948.75	100	435	12	0	13	3	6	14	0	0	0	stim007_stimuli_original_animals_fish_3.png	V	0	0	0	353.476376499981	353.676379199955
82048.75	100	436	12	0	13	4	1	0	0	0	0	stim002_stimuli_original_animals_birds_2.png	A	0	0	0	353.876389399986	354.076373600052
82148.75	100	437	12	0	13	5	7	15	0	0	0	stim008_stimuli_original_animals_fish_4.png	Y	0	0	0	354.276401699986	354.476382800029
82248.75	100	438	12	0	13	6	4	11	0	0	0	stim005_stimuli_original_animals_fish_1.png	R	0	0	0	354.676409699954	354.876408500015
82348.75	100	439	12	0	13	7	10	2	0	0	0	stim011_stimuli_original_vehicles_boats_3.png	C	0	0	0	355.076420999947	355.276415799977
82448.75	100	440	12	0	13	8	0	6	0	1	0	stim001_stimuli_original_animals_birds_1.png	G	0	0	0	355.476427600021	355.67640570004
82548.75	100	441	12	0	13	9	9	12	0	0	0	stim010_stimuli_original_vehicles_boats_2.png	T	0	0	0	355.876443800051	356.076443800004
82648.75	100	442	12	0	13	10	7	6	1	1	0	stim008_stimuli_original_animals_fish_4.png	G	0	0	0	356.276468200027	356.476453299983
82748.75	100	443	12	0	13	11	14	9	0	0	0	stim015_stimuli_original_vehicles_planes_3.png	L	0	0	0	356.676473099971	356.876470800024
82848.75	100	444	12	0	13	12	7	1	1	0	1	stim008_stimuli_original_animals_fish_4.png	B	0	0	0	357.076489300001	357.276485100039
82948.75	100	445	12	0	13	13	3	13	0	0	0	stim004_stimuli_original_animals_birds_4.png	U	d	357.668307799962	1	357.476492400048	357.676492500002
83048.75	100	446	12	0	13	14	2	6	0	0	0	stim003_stimuli_original_animals_birds_3.png	G	0	0	0	357.87650480005	358.076506000012
83148.75	100	447	12	0	13	15	15	5	0	0	0	stim016_stimuli_original_vehicles_planes_4.png	F	0	0	0	358.276492299978	358.476517600007
83248.75	100	448	12	0	13	16	12	3	0	0	0	stim013_stimuli_original_vehicles_planes_1.png	D	0	0	0	358.676532399957	358.876514300006
83348.75	100	449	12	0	13	17	11	4	0	0	0	stim012_stimuli_original_vehicles_boats_4.png	E	0	0	0	359.076549099991	359.276539299986
83448.75	100	450	12	0	13	18	4	11	0	0	0	stim005_stimuli_original_animals_fish_1.png	R	0	0	0	359.476543899975	359.676531699952
83548.75	100	451	12	0	13	19	3	12	0	0	0	stim004_stimuli_original_animals_birds_4.png	T	0	0	0	359.87655419996	360.076549999998
83648.75	100	452	12	0	13	20	5	15	0	0	0	stim006_stimuli_original_animals_fish_2.png	Y	0	0	0	360.276569399983	360.47656380001
83748.75	100	453	12	0	13	21	6	2	0	0	0	stim007_stimuli_original_animals_fish_3.png	C	0	0	0	360.676575900055	360.876547100022
83848.75	100	454	12	0	13	22	13	3	0	0	0	stim014_stimuli_original_vehicles_planes_2.png	D	0	0	0	361.076584400027	361.276585799991
83948.75	100	455	12	0	13	23	1	7	0	1	0	stim002_stimuli_original_animals_birds_2.png	J	0	0	0	361.476600699942	361.676603900036
84048.75	100	456	12	0	13	24	9	14	0	0	0	stim010_stimuli_original_vehicles_boats_2.png	V	0	0	0	361.876617399976	362.076615800033
84148.75	100	457	12	0	13	25	6	7	1	1	0	stim007_stimuli_original_animals_fish_3.png	J	0	0	0	362.276627799962	362.476627000025
84248.75	100	458	12	0	13	26	12	9	0	0	0	stim013_stimuli_original_vehicles_planes_1.png	L	0	0	0	362.676638199948	362.876625700039
84348.75	100	459	12	0	13	27	6	0	1	0	1	stim007_stimuli_original_animals_fish_3.png	A	0	0	0	363.076649400056	363.2766481
84448.75	100	460	12	0	13	28	2	10	0	0	0	stim003_stimuli_original_animals_birds_3.png	Q	d	363.668451500009	1	363.476659400039	363.676651400048
84548.75	100	461	12	0	13	29	11	4	0	0	0	stim012_stimuli_original_vehicles_boats_4.png	E	0	0	0	363.876669800025	364.076674400014
84648.75	100	462	12	0	13	30	15	7	0	0	0	stim016_stimuli_original_vehicles_planes_4.png	J	0	0	0	364.276681800024	364.476685300004
84748.75	100	463	12	0	13	31	0	1	0	0	0	stim001_stimuli_original_animals_birds_1.png	B	0	0	0	364.676691600005	364.876692399965
84848.75	100	464	12	0	13	32	14	6	0	0	0	stim015_stimuli_original_vehicles_planes_3.png	G	0	0	0	365.076702699997	365.276702799951
84948.75	100	465	12	0	13	33	7	5	0	0	0	stim008_stimuli_original_animals_fish_4.png	F	0	0	0	365.476716100005	365.676704299985
85048.75	100	466	12	0	13	34	10	13	0	0	0	stim011_stimuli_original_vehicles_boats_3.png	U	0	0	0	365.876726899995	366.076740100048
85148.75	100	467	12	0	13	35	8	8	0	0	0	stim009_stimuli_original_vehicles_boats_1.png	K	0	0	0	366.276752399979	366.476735700038
87394.75	100	468	13	1	22	0	8	7	0	0	0	stim009_stimuli_original_vehicles_boats_1.png	J	0	0	0	375.260310600046	375.460302900057
87494.75	100	469	13	1	22	1	0	14	0	0	0	stim001_stimuli_original_animals_birds_1.png	V	0	0	0	375.660330899991	375.860313400044
87594.75	100	470	13	1	22	2	14	15	0	0	0	stim015_stimuli_original_vehicles_planes_3.png	Y	0	0	0	376.060327199986	376.260324200033
87694.75	100	471	13	1	22	3	15	13	0	0	0	stim016_stimuli_original_vehicles_planes_4.png	U	0	0	0	376.460334799951	376.660336800036
87794.75	100	472	13	1	22	4	2	3	0	0	0	stim003_stimuli_original_animals_birds_3.png	D	0	0	0	376.860347299953	377.060348600033
87894.75	100	473	13	1	22	5	1	7	0	1	0	stim002_stimuli_original_animals_birds_2.png	J	0	0	0	377.260358299944	377.460373200011
87994.75	100	474	13	1	22	6	5	0	0	0	0	stim006_stimuli_original_animals_fish_2.png	A	0	0	0	377.660370299942	377.8603687
88094.75	100	475	13	1	22	7	2	7	1	1	1	stim003_stimuli_original_animals_birds_3.png	J	0	0	0	378.060379700037	378.260381500004
88194.75	100	476	13	1	22	8	3	9	0	0	0	stim004_stimuli_original_animals_birds_4.png	L	d	378.6521985	1	378.46039240004	378.660390999983
88294.75	100	477	13	1	22	9	2	11	1	0	0	stim003_stimuli_original_animals_birds_3.png	R	0	0	0	378.860404200037	379.060401299968
88394.75	100	478	13	1	22	10	9	12	0	0	0	stim010_stimuli_original_vehicles_boats_2.png	T	0	0	0	379.260418500053	379.460436300025
88494.75	100	479	13	1	22	11	4	6	0	0	0	stim005_stimuli_original_animals_fish_1.png	G	0	0	0	379.660426900024	379.860425399966
88594.75	100	480	13	1	22	12	10	8	0	0	0	stim011_stimuli_original_vehicles_boats_3.png	K	0	0	0	380.060448599979	380.260436199955
88694.75	100	481	13	1	22	13	7	2	0	0	0	stim008_stimuli_original_animals_fish_4.png	C	0	0	0	380.460449400009	380.660445000045
88794.75	100	482	13	1	22	14	6	5	0	0	0	stim007_stimuli_original_animals_fish_3.png	F	0	0	0	380.860457499977	381.060456000036
88894.75	100	483	13	1	22	15	11	1	0	0	0	stim012_stimuli_original_vehicles_boats_4.png	B	0	0	0	381.260470299982	381.460467600031
88994.75	100	484	13	1	22	16	13	10	0	0	0	stim014_stimuli_original_vehicles_planes_2.png	Q	0	0	0	381.660479599959	381.860481900047
89094.75	100	485	13	1	22	17	12	4	0	0	0	stim013_stimuli_original_vehicles_planes_1.png	E	0	0	0	382.060502600041	382.260502899997
89194.75	100	486	13	1	22	18	4	12	0	0	0	stim005_stimuli_original_animals_fish_1.png	T	0	0	0	382.460502599948	382.660504800035
89294.75	100	487	13	1	22	19	10	13	0	0	0	stim011_stimuli_original_vehicles_boats_3.png	U	0	0	0	382.860510600032	383.060513400007
89394.75	100	488	13	1	22	20	1	11	0	0	0	stim002_stimuli_original_animals_birds_2.png	R	0	0	0	383.260526299942	383.460524199996
89494.75	100	489	13	1	22	21	5	6	0	0	0	stim006_stimuli_original_animals_fish_2.png	G	0	0	0	383.660536900046	383.860537
89594.75	100	490	13	1	22	22	2	7	0	0	0	stim003_stimuli_original_animals_birds_3.png	J	0	0	0	384.06054830004	384.260573899955
89694.75	100	491	13	1	22	23	8	10	0	0	0	stim009_stimuli_original_vehicles_boats_1.png	Q	0	0	0	384.460559900035	384.660558899981
89794.75	100	492	13	1	22	24	6	4	0	0	0	stim007_stimuli_original_animals_fish_3.png	E	0	0	0	384.860583900008	385.060569799971
89894.75	100	493	13	1	22	25	12	9	0	0	0	stim013_stimuli_original_vehicles_planes_1.png	L	0	0	0	385.260578199988	385.460578999948
89994.75	100	494	13	1	22	26	11	2	0	1	0	stim012_stimuli_original_vehicles_boats_4.png	C	0	0	0	385.660591099993	385.860591099947
90094.75	100	495	13	1	22	27	9	3	0	0	0	stim010_stimuli_original_vehicles_boats_2.png	D	0	0	0	386.060602599988	386.260601400048
90194.75	100	496	13	1	22	28	7	2	1	1	1	stim008_stimuli_original_animals_fish_4.png	C	0	0	0	386.460613499978	386.660615599947
90294.75	100	497	13	1	22	29	0	5	0	0	0	stim001_stimuli_original_animals_birds_1.png	F	d	387.052447999944	1	386.860655799974	387.060624400037
90394.75	100	498	13	1	22	30	7	1	1	0	0	stim008_stimuli_original_animals_fish_4.png	B	0	0	0	387.26063569996	387.460646499996
90494.75	100	499	13	1	22	31	3	2	0	0	0	stim004_stimuli_original_animals_birds_4.png	C	0	0	0	387.660645799944	387.860647400026
90594.75	100	500	13	1	22	32	13	15	0	0	0	stim014_stimuli_original_vehicles_planes_2.png	Y	0	0	0	388.060658199945	388.260660400032
90694.75	100	501	13	1	22	33	15	14	0	0	0	stim016_stimuli_original_vehicles_planes_4.png	V	0	0	0	388.460673099966	388.660669600009
90794.75	100	502	13	1	22	34	14	0	0	0	0	stim015_stimuli_original_vehicles_planes_3.png	A	0	0	0	388.860680600046	389.060683400021
90894.75	100	503	13	1	22	35	7	8	0	0	0	stim008_stimuli_original_animals_fish_4.png	K	0	0	0	389.260690500028	389.460704699974
93949	100	504	14	0	17	0	13	7	0	0	0	stim014_stimuli_original_vehicles_planes_2.png	J	0	0	0	401.477719599963	401.677717300016
94049	100	505	14	0	17	1	9	11	0	0	0	stim010_stimuli_original_vehicles_boats_2.png	R	0	0	0	401.877726400038	402.077702100039
94149	100	506	14	0	17	2	1	6	0	0	0	stim002_stimuli_original_animals_birds_2.png	G	0	0	0	402.277731799986	402.477745600045
94249	100	507	14	0	17	3	6	10	0	0	0	stim007_stimuli_original_animals_fish_3.png	Q	0	0	0	402.677753599943	402.877754200017
94349	100	508	14	0	17	4	7	14	0	0	0	stim008_stimuli_original_animals_fish_4.png	V	0	0	0	403.077763900044	403.277761899983
94449	100	509	14	0	17	5	11	12	0	0	0	stim012_stimuli_original_vehicles_boats_4.png	T	0	0	0	403.477775100037	403.67777379998
94549	100	510	14	0	17	6	2	1	0	0	0	stim003_stimuli_original_animals_birds_3.png	B	0	0	0	403.877786000026	404.077786299982
94649	100	511	14	0	17	7	8	3	0	0	0	stim009_stimuli_original_vehicles_boats_1.png	D	0	0	0	404.277795900009	404.477796799969
94749	100	512	14	0	17	8	15	5	0	0	0	stim016_stimuli_original_vehicles_planes_4.png	F	0	0	0	404.677792000002	404.877807399957
94849	100	513	14	0	17	9	4	2	0	0	0	stim005_stimuli_original_animals_fish_1.png	C	0	0	0	405.077825000044	405.277818199946
94949	100	514	14	0	17	10	8	0	1	0	0	stim009_stimuli_original_vehicles_boats_1.png	A	0	0	0	405.477831299999	405.677836699993
95049	100	515	14	0	17	11	14	12	0	1	0	stim015_stimuli_original_vehicles_planes_3.png	T	0	0	0	405.877841399983	406.077839200036
95149	100	516	14	0	17	12	8	8	1	0	1	stim009_stimuli_original_vehicles_boats_1.png	K	0	0	0	406.277850799961	406.477852500044
95249	100	517	14	0	17	13	3	12	0	1	0	stim004_stimuli_original_animals_birds_4.png	T	d	406.878038899973	1	406.677847999963	406.877870999975
95349	100	518	14	0	17	14	10	15	0	0	0	stim011_stimuli_original_vehicles_boats_3.png	Y	0	0	0	407.077875699964	407.277862100047
95449	100	519	14	0	17	15	0	4	0	0	0	stim001_stimuli_original_animals_birds_1.png	E	0	0	0	407.47788390005	407.677886200021
95549	100	520	14	0	17	16	5	9	0	0	0	stim006_stimuli_original_animals_fish_2.png	L	0	0	0	407.877894700039	408.07789439999
95649	100	521	14	0	17	17	12	13	0	0	0	stim013_stimuli_original_vehicles_planes_1.png	U	0	0	0	408.277906900039	408.477907599998
95749	100	522	14	0	17	18	13	12	0	0	0	stim014_stimuli_original_vehicles_planes_2.png	T	0	0	0	408.677918300033	408.8779048
95849	100	523	14	0	17	19	9	5	0	0	0	stim010_stimuli_original_vehicles_boats_2.png	F	0	0	0	409.07792760001	409.277930499986
95949	100	524	14	0	17	20	4	0	0	0	0	stim005_stimuli_original_animals_fish_1.png	A	0	0	0	409.477940400015	409.677941599977
96049	100	525	14	0	17	21	15	10	0	0	0	stim016_stimuli_original_vehicles_planes_4.png	Q	0	0	0	409.877965899999	410.077951999963
96149	100	526	14	0	17	22	12	3	1	0	0	stim013_stimuli_original_vehicles_planes_1.png	D	0	0	0	410.277967600035	410.477953599999
96249	100	527	14	0	17	23	8	8	0	1	0	stim009_stimuli_original_vehicles_boats_1.png	K	0	0	0	410.677974799997	410.877973699942
96349	100	528	14	0	17	24	12	14	1	0	1	stim013_stimuli_original_vehicles_planes_1.png	V	0	0	0	411.077985899989	411.277985000052
96449	100	529	14	0	17	25	0	8	0	1	0	stim001_stimuli_original_animals_birds_1.png	K	0	0	0	411.477995499969	411.67799570004
96549	100	530	14	0	17	26	2	4	0	0	0	stim003_stimuli_original_animals_birds_3.png	E	0	0	0	411.878008399974	412.077983699972
96649	100	531	14	0	17	27	5	15	0	0	0	stim006_stimuli_original_animals_fish_2.png	Y	d	412.469809700036	1	412.278017699951	412.478036900051
96749	100	532	14	0	17	28	3	8	0	0	0	stim004_stimuli_original_animals_birds_4.png	K	0	0	0	412.678014899953	412.878026099992
96849	100	533	14	0	17	29	1	2	0	0	0	stim002_stimuli_original_animals_birds_2.png	C	0	0	0	413.078040999942	413.278035799973
96949	100	534	14	0	17	30	12	11	0	0	0	stim013_stimuli_original_vehicles_planes_1.png	R	0	0	0	413.478046600008	413.678049499984
97049	100	535	14	0	17	31	14	7	0	0	0	stim015_stimuli_original_vehicles_planes_3.png	J	0	0	0	413.878065299941	414.078058399959
97149	100	536	14	0	17	32	10	6	0	0	0	stim011_stimuli_original_vehicles_boats_3.png	G	0	0	0	414.27807390003	414.478069599951
97249	100	537	14	0	17	33	6	1	0	0	0	stim007_stimuli_original_animals_fish_3.png	B	0	0	0	414.678069100017	414.878079400049
97349	100	538	14	0	17	34	11	9	0	0	0	stim012_stimuli_original_vehicles_boats_4.png	L	0	0	0	415.078090899973	415.278090100037
97449	100	539	14	0	17	35	7	13	0	0	0	stim008_stimuli_original_animals_fish_4.png	U	0	0	0	415.478102899971	415.678094999981
98090.75	100	540	15	1	36	0	13	8	0	0	0	stim014_stimuli_original_vehicles_planes_2.png	K	0	0	0	418.044816500042	418.244816399994
98190.75	100	541	15	1	36	1	2	15	0	0	0	stim003_stimuli_original_animals_birds_3.png	Y	0	0	0	418.444851899985	418.644838199951
98290.75	100	542	15	1	36	2	4	0	0	0	0	stim005_stimuli_original_animals_fish_1.png	A	0	0	0	418.844862499973	419.044851899962
98390.75	100	543	15	1	36	3	6	7	0	0	0	stim007_stimuli_original_animals_fish_3.png	J	0	0	0	419.244858999969	419.44486259995
98490.75	100	544	15	1	36	4	14	3	0	0	0	stim015_stimuli_original_vehicles_planes_3.png	D	0	0	0	419.644879800035	419.844870500034
98590.75	100	545	15	1	36	5	9	5	0	1	0	stim010_stimuli_original_vehicles_boats_2.png	F	0	0	0	420.04488089995	420.24488230003
98690.75	100	546	15	1	36	6	10	2	1	0	0	stim011_stimuli_original_vehicles_boats_3.png	C	0	0	0	420.444894599961	420.644892800017
98790.75	100	547	15	1	36	7	7	5	0	1	1	stim008_stimuli_original_animals_fish_4.png	F	0	0	0	420.844900700031	421.044907900039
98890.75	100	548	15	1	36	8	10	6	1	0	0	stim011_stimuli_original_vehicles_boats_3.png	G	0	0	0	421.244917699951	421.444915600005
98990.75	100	549	15	1	36	9	11	12	0	0	0	stim012_stimuli_original_vehicles_boats_4.png	T	0	0	0	421.644957800047	421.844931100029
99090.75	100	550	15	1	36	10	12	1	0	0	0	stim013_stimuli_original_vehicles_planes_1.png	B	0	0	0	422.044938800042	422.244937099982
99190.75	100	551	15	1	36	11	5	10	0	0	0	stim006_stimuli_original_animals_fish_2.png	Q	0	0	0	422.444952400052	422.644948199973
99290.75	100	552	15	1	36	12	1	13	0	0	0	stim002_stimuli_original_animals_birds_2.png	U	0	0	0	422.844958800008	423.044960399973
99390.75	100	553	15	1	36	13	15	11	0	0	0	stim016_stimuli_original_vehicles_planes_4.png	R	0	0	0	423.244976800052	423.444973899983
99490.75	100	554	15	1	36	14	10	5	0	0	0	stim011_stimuli_original_vehicles_boats_3.png	F	0	0	0	423.645010299981	423.844986499986
99590.75	100	555	15	1	36	15	0	9	0	0	0	stim001_stimuli_original_animals_birds_1.png	L	0	0	0	424.044994199998	424.2450006
99690.75	100	556	15	1	36	16	8	14	0	0	0	stim009_stimuli_original_vehicles_boats_1.png	V	0	0	0	424.445006299997	424.645004800055
99790.75	100	557	15	1	36	17	3	4	0	0	0	stim004_stimuli_original_animals_birds_4.png	E	0	0	0	424.845012799953	425.045016700053
99890.75	100	558	15	1	36	18	4	3	0	0	0	stim005_stimuli_original_animals_fish_1.png	D	0	0	0	425.245029199985	425.445029400056
99990.75	100	559	15	1	36	19	14	8	0	0	0	stim015_stimuli_original_vehicles_planes_3.png	K	0	0	0	425.645037299953	425.845038300031
100090.75	100	560	15	1	36	20	9	0	0	0	0	stim010_stimuli_original_vehicles_boats_2.png	A	0	0	0	426.045050099958	426.245072199963
100190.75	100	561	15	1	36	21	5	10	0	0	0	stim006_stimuli_original_animals_fish_2.png	Q	0	0	0	426.445060100057	426.645060900017
100290.75	100	562	15	1	36	22	11	15	0	0	0	stim012_stimuli_original_vehicles_boats_4.png	Y	0	0	0	426.845080600004	427.045073800022
100390.75	100	563	15	1	36	23	13	1	0	0	0	stim014_stimuli_original_vehicles_planes_2.png	B	0	0	0	427.245082500041	427.445087300031
100490.75	100	564	15	1	36	24	10	5	0	0	0	stim011_stimuli_original_vehicles_boats_3.png	F	0	0	0	427.64509460004	427.845093599986
100590.75	100	565	15	1	36	25	1	12	0	0	0	stim002_stimuli_original_animals_birds_2.png	T	0	0	0	428.045105300029	428.245106899994
100690.75	100	566	15	1	36	26	12	11	0	0	0	stim013_stimuli_original_vehicles_planes_1.png	R	0	0	0	428.44513430004	428.645115799969
100790.75	100	567	15	1	36	27	6	10	0	1	0	stim007_stimuli_original_animals_fish_3.png	Q	0	0	0	428.845136699965	429.045125699951
100890.75	100	568	15	1	36	28	5	7	1	0	0	stim006_stimuli_original_animals_fish_2.png	J	0	0	0	429.245137599995	429.445141199976
100990.75	100	569	15	1	36	29	2	10	0	1	1	stim003_stimuli_original_animals_birds_3.png	Q	0	0	0	429.645149799995	429.845149699948
101090.75	100	570	15	1	36	30	5	9	1	0	0	stim006_stimuli_original_animals_fish_2.png	L	0	0	0	430.045159899979	430.245160300052
101190.75	100	571	15	1	36	31	3	14	0	0	0	stim004_stimuli_original_animals_birds_4.png	V	0	0	0	430.445172999986	430.645171800046
101290.75	100	572	15	1	36	32	7	6	0	0	0	stim008_stimuli_original_animals_fish_4.png	G	d	430.845406800043	1	430.845182799967	431.045212400029
101390.75	100	573	15	1	36	33	0	4	0	0	0	stim001_stimuli_original_animals_birds_1.png	E	0	0	0	431.245192399947	431.445194700034
101490.75	100	574	15	1	36	34	15	2	0	0	0	stim016_stimuli_original_vehicles_planes_4.png	C	0	0	0	431.645232700044	431.845205600024
101590.75	100	575	15	1	36	35	8	13	0	0	0	stim009_stimuli_original_vehicles_boats_1.png	U	0	0	0	432.04521989997	432.245217100019
104007.5	100	576	16	0	5	0	15	1	0	0	0	stim016_stimuli_original_vehicles_planes_4.png	B	0	0	0	441.712174199987	441.91218730004
104107.5	100	577	16	0	5	1	11	12	0	0	0	stim012_stimuli_original_vehicles_boats_4.png	T	0	0	0	442.112184399972	442.312194099999
104207.5	100	578	16	0	5	2	6	3	0	0	0	stim007_stimuli_original_animals_fish_3.png	D	0	0	0	442.512202400016	442.712194400025
104307.5	100	579	16	0	5	3	5	0	0	0	0	stim006_stimuli_original_animals_fish_2.png	A	0	0	0	442.91220989998	443.112204800011
104407.5	100	580	16	0	5	4	7	10	0	0	0	stim008_stimuli_original_animals_fish_4.png	Q	0	0	0	443.312217299943	443.512215700001
104507.5	100	581	16	0	5	5	3	4	0	0	0	stim004_stimuli_original_animals_birds_4.png	E	0	0	0	443.712212900049	443.91222649999
104607.5	100	582	16	0	5	6	11	5	1	0	0	stim012_stimuli_original_vehicles_boats_4.png	F	0	0	0	444.112229099963	444.31223619997
104707.5	100	583	16	0	5	7	13	14	0	0	0	stim014_stimuli_original_vehicles_planes_2.png	V	0	0	0	444.512269000057	444.712246499956
104807.5	100	584	16	0	5	8	11	8	1	0	1	stim012_stimuli_original_vehicles_boats_4.png	K	0	0	0	444.912259400007	445.112259599962
104907.5	100	585	16	0	5	9	8	11	0	0	0	stim009_stimuli_original_vehicles_boats_1.png	R	0	0	0	445.312267599977	445.51226680004
105007.5	100	586	16	0	5	10	9	2	0	0	0	stim010_stimuli_original_vehicles_boats_2.png	C	0	0	0	445.712264099973	445.912263800041
105107.5	100	587	16	0	5	11	14	15	0	0	0	stim015_stimuli_original_vehicles_planes_3.png	Y	0	0	0	446.112289399956	446.31227330002
105207.5	100	588	16	0	5	12	1	5	0	1	0	stim002_stimuli_original_animals_birds_2.png	F	0	0	0	446.512303099968	446.712299400009
105307.5	100	589	16	0	5	13	10	6	0	0	0	stim011_stimuli_original_vehicles_boats_3.png	G	0	0	0	446.912301899982	447.11231570004
105407.5	100	590	16	0	5	14	0	5	0	1	0	stim001_stimuli_original_animals_birds_1.png	F	0	0	0	447.312321000034	447.512329700054
105507.5	100	591	16	0	5	15	12	7	0	0	0	stim013_stimuli_original_vehicles_planes_1.png	J	0	0	0	447.712336000055	447.912332999986
105607.5	100	592	16	0	5	16	4	9	0	0	0	stim005_stimuli_original_animals_fish_1.png	L	0	0	0	448.11234969995	448.312350700027
105707.5	100	593	16	0	5	17	2	13	0	0	0	stim003_stimuli_original_animals_birds_3.png	U	0	0	0	448.512362199952	448.712362200022
105807.5	100	594	16	0	5	18	13	2	0	0	0	stim014_stimuli_original_vehicles_planes_2.png	C	0	0	0	448.912380299997	449.112374000018
105907.5	100	595	16	0	5	19	9	4	0	0	0	stim010_stimuli_original_vehicles_boats_2.png	E	0	0	0	449.312360699987	449.512363499962
106007.5	100	596	16	0	5	20	7	12	0	0	0	stim008_stimuli_original_animals_fish_4.png	T	0	0	0	449.712379200035	449.912375399959
106107.5	100	597	16	0	5	21	5	0	1	0	0	stim006_stimuli_original_animals_fish_2.png	A	0	0	0	450.112373700016	450.31237369997
106207.5	100	598	16	0	5	22	6	10	0	0	0	stim007_stimuli_original_animals_fish_3.png	Q	0	0	0	450.512386900024	450.712384999963
106307.5	100	599	16	0	5	23	5	1	1	0	1	stim006_stimuli_original_animals_fish_2.png	B	0	0	0	450.912397100008	451.112396699958
106407.5	100	600	16	0	5	24	15	14	0	0	0	stim016_stimuli_original_vehicles_planes_4.png	V	0	0	0	451.312408099999	451.512407999951
106507.5	100	601	16	0	5	25	2	9	0	0	0	stim003_stimuli_original_animals_birds_3.png	L	0	0	0	451.712421100005	451.912418200052
106607.5	100	602	16	0	5	26	11	8	0	0	0	stim012_stimuli_original_vehicles_boats_4.png	K	0	0	0	452.112433600007	452.312431799946
106707.5	100	603	16	0	5	27	8	11	0	1	0	stim009_stimuli_original_vehicles_boats_1.png	R	0	0	0	452.512443299987	452.712448899983
106807.5	100	604	16	0	5	28	14	13	0	0	0	stim015_stimuli_original_vehicles_planes_3.png	U	0	0	0	452.912453799974	453.112454400049
106907.5	100	605	16	0	5	29	5	11	0	1	0	stim006_stimuli_original_animals_fish_2.png	R	0	0	0	453.312464299961	453.51246420003
107007.5	100	606	16	0	5	30	4	3	0	0	0	stim005_stimuli_original_animals_fish_1.png	D	0	0	0	453.712476799963	453.912476000027
107107.5	100	607	16	0	5	31	10	7	0	0	0	stim011_stimuli_original_vehicles_boats_3.png	J	0	0	0	454.112485800055	454.312487700023
107207.5	100	608	16	0	5	32	0	5	0	0	0	stim001_stimuli_original_animals_birds_1.png	F	0	0	0	454.512497200049	454.712495799991
107307.5	100	609	16	0	5	33	3	6	0	0	0	stim004_stimuli_original_animals_birds_4.png	G	0	0	0	454.912510799943	455.112508899998
107407.75	100	610	16	0	5	34	12	11	0	0	0	stim013_stimuli_original_vehicles_planes_1.png	R	0	0	0	455.312520300038	455.512522200006
107507.75	100	611	16	0	5	35	1	15	0	0	0	stim002_stimuli_original_animals_birds_2.png	Y	0	0	0	455.712533200043	455.912531799986
109591	100	612	17	1	38	0	13	4	0	0	0	stim014_stimuli_original_vehicles_planes_2.png	E	0	0	0	464.04610050004	464.246127599967
109691	100	613	17	1	38	1	14	1	0	0	0	stim015_stimuli_original_vehicles_planes_3.png	B	0	0	0	464.446109100012	464.646111999988
109791	100	614	17	1	38	2	15	5	0	0	0	stim016_stimuli_original_vehicles_planes_4.png	F	0	0	0	464.846145599964	465.046117700054
109891	100	615	17	1	38	3	2	7	0	0	0	stim003_stimuli_original_animals_birds_3.png	J	0	0	0	465.246129799983	465.446130499942
109991	100	616	17	1	38	4	0	11	0	0	0	stim001_stimuli_original_animals_birds_1.png	R	0	0	0	465.646139299963	465.846139500034
110091	100	617	17	1	38	5	9	6	0	0	0	stim010_stimuli_original_vehicles_boats_2.png	G	0	0	0	466.046155999997	466.246151500032
110191	100	618	17	1	38	6	3	3	0	0	0	stim004_stimuli_original_animals_birds_4.png	D	0	0	0	466.44616609998	466.646163600031
110291	100	619	17	1	38	7	8	2	0	0	0	stim009_stimuli_original_vehicles_boats_1.png	C	0	0	0	466.846191599965	467.046175100026
110391	100	620	17	1	38	8	12	8	0	0	0	stim013_stimuli_original_vehicles_planes_1.png	K	0	0	0	467.246188099962	467.446195099968
110491	100	621	17	1	38	9	2	10	1	0	0	stim003_stimuli_original_animals_birds_3.png	Q	0	0	0	467.646195800044	467.846221299958
110591	100	622	17	1	38	10	6	13	0	0	0	stim007_stimuli_original_animals_fish_3.png	U	0	0	0	468.046221000026	468.246222699992
110691	100	623	17	1	38	11	2	9	1	1	0	stim003_stimuli_original_animals_birds_3.png	L	0	0	0	468.446220700047	468.6462207
110791	100	624	17	1	38	12	11	14	0	0	0	stim012_stimuli_original_vehicles_boats_4.png	V	0	0	0	468.846228400012	469.046233500005
110891	100	625	17	1	38	13	4	9	0	1	1	stim005_stimuli_original_animals_fish_1.png	L	0	0	0	469.246243500034	469.446252899943
110991	100	626	17	1	38	14	5	15	0	0	0	stim006_stimuli_original_animals_fish_2.png	Y	d	469.838048800011	1	469.646257200046	469.846257099998
111091	100	627	17	1	38	15	7	0	0	0	0	stim008_stimuli_original_animals_fish_4.png	A	0	0	0	470.046271000057	470.246267799987
111191	100	628	17	1	38	16	1	9	0	0	0	stim002_stimuli_original_animals_birds_2.png	L	0	0	0	470.446278200019	470.646273300052
111291	100	629	17	1	38	17	10	12	0	0	0	stim011_stimuli_original_vehicles_boats_3.png	T	0	0	0	470.846301699989	471.046305099968
111391	100	630	17	1	38	18	12	10	0	0	0	stim013_stimuli_original_vehicles_planes_1.png	Q	0	0	0	471.246299799997	471.446298100054
111491	100	631	17	1	38	19	9	1	0	0	0	stim010_stimuli_original_vehicles_boats_2.png	B	0	0	0	471.646346000023	471.846307600033
111591	100	632	17	1	38	20	0	7	0	0	0	stim001_stimuli_original_animals_birds_1.png	J	0	0	0	472.046331900056	472.246316300007
111691	100	633	17	1	38	21	15	5	0	0	0	stim016_stimuli_original_vehicles_planes_4.png	F	0	0	0	472.446331799962	472.646344000008
111791	100	634	17	1	38	22	9	4	1	0	0	stim010_stimuli_original_vehicles_boats_2.png	E	0	0	0	472.84635430004	473.046355900005
111891	100	635	17	1	38	23	14	11	0	0	0	stim015_stimuli_original_vehicles_planes_3.png	R	0	0	0	473.246364800027	473.446354500018
111991	100	636	17	1	38	24	9	2	1	1	0	stim010_stimuli_original_vehicles_boats_2.png	C	0	0	0	473.646364000044	473.846364700003
112091	100	637	17	1	38	25	13	6	0	0	0	stim014_stimuli_original_vehicles_planes_2.png	G	0	0	0	474.046379399952	474.246400699951
112191	100	638	17	1	38	26	10	2	0	1	1	stim011_stimuli_original_vehicles_boats_3.png	C	0	0	0	474.446391899954	474.646387199988
112291	100	639	17	1	38	27	8	12	0	0	0	stim009_stimuli_original_vehicles_boats_1.png	T	d	475.038219399983	1	474.846422299976	475.04639979999
112391	100	640	17	1	38	28	2	8	0	0	0	stim003_stimuli_original_animals_birds_3.png	K	0	0	0	475.246416699956	475.446420100052
112491	100	641	17	1	38	29	3	3	0	0	0	stim004_stimuli_original_animals_birds_4.png	D	0	0	0	475.64642330003	475.846421999973
112591	100	642	17	1	38	30	6	9	0	0	0	stim007_stimuli_original_animals_fish_3.png	L	0	0	0	476.046433900017	476.246431099949
112691	100	643	17	1	38	31	11	0	0	0	0	stim012_stimuli_original_vehicles_boats_4.png	A	0	0	0	476.446448400035	476.646441400051
112791	100	644	17	1	38	32	7	2	0	0	0	stim008_stimuli_original_animals_fish_4.png	C	0	0	0	476.846463799942	477.046454000054
112891	100	645	17	1	38	33	5	15	0	0	0	stim006_stimuli_original_animals_fish_2.png	Y	0	0	0	477.246463599964	477.44646789995
112991	100	646	17	1	38	34	1	14	0	0	0	stim002_stimuli_original_animals_birds_2.png	V	0	0	0	477.646493999986	477.846472900012
113091	100	647	17	1	38	35	4	13	0	0	0	stim005_stimuli_original_animals_fish_1.png	U	0	0	0	478.046491799993	478.24648760003
114903.75	100	648	18	0	46	0	7	11	0	0	0	stim008_stimuli_original_animals_fish_4.png	R	0	0	0	485.296702799969	485.496728700004
115003.75	100	649	18	0	46	1	13	4	0	0	0	stim014_stimuli_original_vehicles_planes_2.png	E	0	0	0	485.696711499942	485.896713900031
115103.75	100	650	18	0	46	2	0	9	0	0	0	stim001_stimuli_original_animals_birds_1.png	L	0	0	0	486.09673660004	486.296721299994
115203.75	100	651	18	0	46	3	12	15	0	0	0	stim013_stimuli_original_vehicles_planes_1.png	Y	0	0	0	486.496743399999	486.696733699995
115303.75	100	652	18	0	46	4	9	7	1	0	0	stim010_stimuli_original_vehicles_boats_2.png	J	0	0	0	486.896745300037	487.096743099974
115403.75	100	653	18	0	46	5	14	13	0	0	0	stim015_stimuli_original_vehicles_planes_3.png	U	0	0	0	487.296754400013	487.496758099995
115503.75	100	654	18	0	46	6	9	1	1	0	1	stim010_stimuli_original_vehicles_boats_2.png	B	0	0	0	487.696767200017	487.896766899968
115603.75	100	655	18	0	46	7	8	8	0	0	0	stim009_stimuli_original_vehicles_boats_1.png	K	d	488.288598799962	1	488.096805799985	488.296777699958
115703.75	100	656	18	0	46	8	2	6	0	0	0	stim003_stimuli_original_animals_birds_3.png	G	0	0	0	488.496789600002	488.696797100012
115803.75	100	657	18	0	46	9	6	4	0	1	0	stim007_stimuli_original_animals_fish_3.png	E	0	0	0	488.896800399991	489.096801599953
115903.75	100	658	18	0	46	10	4	3	0	0	0	stim005_stimuli_original_animals_fish_1.png	D	0	0	0	489.296811099979	489.496813099948
116003.75	100	659	18	0	46	11	9	4	0	1	0	stim010_stimuli_original_vehicles_boats_2.png	E	0	0	0	489.696824099985	489.896820700029
116103.75	100	660	18	0	46	12	5	14	0	0	0	stim006_stimuli_original_animals_fish_2.png	V	0	0	0	490.096834599972	490.296835800051
116203.75	100	661	18	0	46	13	15	10	0	0	0	stim016_stimuli_original_vehicles_planes_4.png	Q	0	0	0	490.496845599962	490.696857200004
116303.75	100	662	18	0	46	14	11	0	0	0	0	stim012_stimuli_original_vehicles_boats_4.png	A	0	0	0	490.896855099942	491.096858500037
116403.75	100	663	18	0	46	15	1	2	0	0	0	stim002_stimuli_original_animals_birds_2.png	C	0	0	0	491.296877300018	491.496865499998
116503.75	100	664	18	0	46	16	3	12	0	0	0	stim004_stimuli_original_animals_birds_4.png	T	0	0	0	491.696878700051	491.89686940005
116603.75	100	665	18	0	46	17	10	5	0	0	0	stim011_stimuli_original_vehicles_boats_3.png	F	0	0	0	492.096881399979	492.296878500027
116703.75	100	666	18	0	46	18	5	10	0	0	0	stim006_stimuli_original_animals_fish_2.png	Q	0	0	0	492.496888300055	492.696894000052
116803.75	100	667	18	0	46	19	12	3	0	0	0	stim013_stimuli_original_vehicles_planes_1.png	D	0	0	0	492.896922399988	493.096897899988
116903.75	100	668	18	0	46	20	2	1	0	0	0	stim003_stimuli_original_animals_birds_3.png	B	0	0	0	493.296922800015	493.496911800001
117003.75	100	669	18	0	46	21	0	11	0	0	0	stim001_stimuli_original_animals_birds_1.png	R	0	0	0	493.696921200026	493.896929100039
117103.75	100	670	18	0	46	22	10	15	0	0	0	stim011_stimuli_original_vehicles_boats_3.png	Y	0	0	0	494.096931100008	494.29693349998
117203.75	100	671	18	0	46	23	14	5	0	0	0	stim015_stimuli_original_vehicles_planes_3.png	F	0	0	0	494.496944600018	494.696941999951
117303.75	100	672	18	0	46	24	4	9	1	0	0	stim005_stimuli_original_animals_fish_1.png	L	0	0	0	494.896955400007	495.096956999972
117403.75	100	673	18	0	46	25	3	4	0	0	0	stim004_stimuli_original_animals_birds_4.png	E	0	0	0	495.296966399997	495.496975300019
117503.75	100	674	18	0	46	26	4	6	1	0	1	stim005_stimuli_original_animals_fish_1.png	G	0	0	0	495.696976999985	495.896978099947
117603.75	100	675	18	0	46	27	6	2	0	0	0	stim007_stimuli_original_animals_fish_3.png	C	d	496.288800399983	1	496.097006800002	496.296990499948
117703.75	100	676	18	0	46	28	8	8	0	0	0	stim009_stimuli_original_vehicles_boats_1.png	K	0	0	0	496.497000299976	496.697000400047
117803.75	100	677	18	0	46	29	1	9	0	1	0	stim002_stimuli_original_animals_birds_2.png	L	0	0	0	496.897010899964	497.097011100035
117903.75	100	678	18	0	46	30	13	14	0	0	0	stim014_stimuli_original_vehicles_planes_2.png	V	0	0	0	497.297022199957	497.497023100033
118003.75	100	679	18	0	46	31	7	9	0	1	0	stim008_stimuli_original_animals_fish_4.png	L	0	0	0	497.697033999953	497.897034200025
118103.75	100	680	18	0	46	32	15	12	0	0	0	stim016_stimuli_original_vehicles_planes_4.png	T	0	0	0	498.097072500037	498.297044600011
118203.75	100	681	18	0	46	33	9	0	0	0	0	stim010_stimuli_original_vehicles_boats_2.png	A	0	0	0	498.497056999942	498.697067199973
118303.75	100	682	18	0	46	34	4	13	0	0	0	stim005_stimuli_original_animals_fish_1.png	U	0	0	0	498.897069199942	499.097067800001
118403.75	100	683	18	0	46	35	11	7	0	0	0	stim012_stimuli_original_vehicles_boats_4.png	J	0	0	0	499.297079500044	499.497079599998
120041.25	100	684	19	1	12	0	8	11	0	0	0	stim009_stimuli_original_vehicles_boats_1.png	R	0	0	0	505.847293799976	506.047292000032
120141.25	100	685	19	1	12	1	13	9	0	0	0	stim014_stimuli_original_vehicles_planes_2.png	L	0	0	0	506.247287899954	506.447306300048
120241.25	100	686	19	1	12	2	4	14	0	0	0	stim005_stimuli_original_animals_fish_1.png	V	0	0	0	506.647337800008	506.847311899997
120341.25	100	687	19	1	12	3	3	7	0	0	0	stim004_stimuli_original_animals_birds_4.png	J	0	0	0	507.047325999942	507.247325400007
120441.25	100	688	19	1	12	4	6	12	0	0	0	stim007_stimuli_original_animals_fish_3.png	T	0	0	0	507.447335500037	507.647322200006
120541.25	100	689	19	1	12	5	2	8	1	1	0	stim003_stimuli_original_animals_birds_3.png	K	0	0	0	507.847347500036	508.047340900055
120641.25	100	690	19	1	12	6	14	5	0	0	0	stim015_stimuli_original_vehicles_planes_3.png	F	0	0	0	508.247358700028	508.447358699981
120741.25	100	691	19	1	12	7	2	8	1	1	1	stim003_stimuli_original_animals_birds_3.png	K	0	0	0	508.647375099943	508.84736679995
120841.25	100	692	19	1	12	8	7	4	0	0	0	stim008_stimuli_original_animals_fish_4.png	E	0	0	0	509.047380700009	509.247391100042
120941.25	100	693	19	1	12	9	0	1	0	0	0	stim001_stimuli_original_animals_birds_1.png	B	d	509.439935400034	1	509.447395600029	509.647392999963
121041.25	100	694	19	1	12	10	10	10	0	0	0	stim011_stimuli_original_vehicles_boats_3.png	Q	0	0	0	509.84740530001	510.047401800053
121141.25	100	695	19	1	12	11	15	0	0	0	0	stim016_stimuli_original_vehicles_planes_4.png	A	0	0	0	510.24740750005	510.447410200024
121241.25	100	696	19	1	12	12	1	13	0	0	0	stim002_stimuli_original_animals_birds_2.png	U	0	0	0	510.647422699956	510.847420200007
121341.25	100	697	19	1	12	13	2	8	0	0	0	stim003_stimuli_original_animals_birds_3.png	K	0	0	0	511.047428300022	511.247429299983
121441.25	100	698	19	1	12	14	11	15	0	0	0	stim012_stimuli_original_vehicles_boats_4.png	Y	0	0	0	511.447414899943	511.647437999956
121541.25	100	699	19	1	12	15	9	3	0	0	0	stim010_stimuli_original_vehicles_boats_2.png	D	0	0	0	511.847449699999	512.047466299962
121641.25	100	700	19	1	12	16	12	6	0	0	0	stim013_stimuli_original_vehicles_planes_1.png	G	0	0	0	512.2474621	512.447461099946
121741.25	100	701	19	1	12	17	5	2	0	0	0	stim006_stimuli_original_animals_fish_2.png	C	0	0	0	512.647480100044	512.84747649997
121841.25	100	702	19	1	12	18	2	5	0	0	0	stim003_stimuli_original_animals_birds_3.png	F	0	0	0	513.047484299983	513.247493400006
121941.25	100	703	19	1	12	19	6	12	0	0	0	stim007_stimuli_original_animals_fish_3.png	T	0	0	0	513.447504700045	513.647512999945
122041.25	100	704	19	1	12	20	3	9	0	0	0	stim004_stimuli_original_animals_birds_4.png	L	0	0	0	513.847516700043	514.047530899988
122141.25	100	705	19	1	12	21	15	11	0	0	0	stim016_stimuli_original_vehicles_planes_4.png	R	0	0	0	514.247525100014	514.447525499971
122241.25	100	706	19	1	12	22	8	2	0	0	0	stim009_stimuli_original_vehicles_boats_1.png	C	0	0	0	514.647542700055	514.847537899972
122341.25	100	707	19	1	12	23	13	1	0	0	0	stim014_stimuli_original_vehicles_planes_2.png	B	0	0	0	515.047549100011	515.247549699969
122441.25	100	708	19	1	12	24	0	15	0	0	0	stim001_stimuli_original_animals_birds_1.png	Y	0	0	0	515.447560700006	515.647559799952
122541.25	100	709	19	1	12	25	10	10	0	0	0	stim011_stimuli_original_vehicles_boats_3.png	Q	0	0	0	515.84756959998	516.047571999952
122641.25	100	710	19	1	12	26	1	0	0	0	0	stim002_stimuli_original_animals_birds_2.png	A	0	0	0	516.247585500008	516.447580700042
122741.25	100	711	19	1	12	27	4	7	0	0	0	stim005_stimuli_original_animals_fish_1.png	J	0	0	0	516.647562699975	516.847596999956
122841.25	100	712	19	1	12	28	8	2	1	1	0	stim009_stimuli_original_vehicles_boats_1.png	C	0	0	0	517.047623299994	517.247588800034
122941.25	100	713	19	1	12	29	5	14	0	0	0	stim006_stimuli_original_animals_fish_2.png	V	0	0	0	517.44761449995	517.647617800045
123041.25	100	714	19	1	12	30	8	2	1	1	1	stim009_stimuli_original_vehicles_boats_1.png	C	0	0	0	517.847631299985	518.047629000037
123141.25	100	715	19	1	12	31	12	6	0	0	0	stim013_stimuli_original_vehicles_planes_1.png	G	0	0	0	518.247638399946	518.44763900002
123241.25	100	716	19	1	12	32	7	3	0	0	0	stim008_stimuli_original_animals_fish_4.png	D	d	518.640248300042	1	518.647650599945	518.847653400037
123341.25	100	717	19	1	12	33	14	4	0	0	0	stim015_stimuli_original_vehicles_planes_3.png	E	0	0	0	519.047661900055	519.247664500028
123441.25	100	718	19	1	12	34	9	13	0	0	0	stim010_stimuli_original_vehicles_boats_2.png	U	0	0	0	519.447671500035	519.647670099977
123541.25	100	719	19	1	12	35	11	8	0	0	0	stim012_stimuli_original_vehicles_boats_4.png	K	0	0	0	519.847683700034	520.047682799981
126608	100	720	20	0	34	0	10	11	0	0	0	stim011_stimuli_original_vehicles_boats_3.png	R	0	0	0	532.114674699958	532.314672600012
126708	100	721	20	0	34	1	6	14	0	0	0	stim007_stimuli_original_animals_fish_3.png	V	0	0	0	532.514681800036	532.714681599988
126808	100	722	20	0	34	2	11	6	0	0	0	stim012_stimuli_original_vehicles_boats_4.png	G	0	0	0	532.914683999959	533.114680400002
126908	100	723	20	0	34	3	2	8	0	0	0	stim003_stimuli_original_animals_birds_3.png	K	0	0	0	533.314693999942	533.514694000012
127008	100	724	20	0	34	4	1	7	0	0	0	stim002_stimuli_original_animals_birds_2.png	J	0	0	0	533.714704300044	533.914703499991
127108	100	725	20	0	34	5	5	4	0	0	0	stim006_stimuli_original_animals_fish_2.png	E	0	0	0	534.114716400043	534.314716699999
127208	100	726	20	0	34	6	0	0	0	1	0	stim001_stimuli_original_animals_birds_1.png	A	0	0	0	534.514725300018	534.714726799983
127308	100	727	20	0	34	7	7	2	0	0	0	stim008_stimuli_original_animals_fish_4.png	C	0	0	0	534.914739900036	535.114739599987
127408	100	728	20	0	34	8	12	0	0	1	0	stim013_stimuli_original_vehicles_planes_1.png	A	0	0	0	535.314748100005	535.514748399961
127508	100	729	20	0	34	9	15	13	0	0	0	stim016_stimuli_original_vehicles_planes_4.png	U	0	0	0	535.714759199996	535.914758699946
127608	100	730	20	0	34	10	7	15	1	0	0	stim008_stimuli_original_animals_fish_4.png	Y	0	0	0	536.114768699976	536.314774899976
127708	100	731	20	0	34	11	3	0	0	0	0	stim004_stimuli_original_animals_birds_4.png	A	0	0	0	536.514782599988	536.714782599942
127808	100	732	20	0	34	12	7	3	1	0	1	stim008_stimuli_original_animals_fish_4.png	D	0	0	0	536.914793999982	537.114794000052
127908	100	733	20	0	34	13	4	9	0	0	0	stim005_stimuli_original_animals_fish_1.png	L	0	0	0	537.314804999973	537.514805100043
128008.25	100	734	20	0	34	14	13	5	0	0	0	stim014_stimuli_original_vehicles_planes_2.png	F	d	537.707373399986	1	537.714818299981	537.914815300028
128108.25	100	735	20	0	34	15	8	12	0	0	0	stim009_stimuli_original_vehicles_boats_1.png	T	0	0	0	538.114827599959	538.314827200025
128208.25	100	736	20	0	34	16	14	10	0	0	0	stim015_stimuli_original_vehicles_planes_3.png	Q	0	0	0	538.514837200055	538.714849199983
128308.25	100	737	20	0	34	17	9	1	0	0	0	stim010_stimuli_original_vehicles_boats_2.png	B	0	0	0	538.914859400014	539.114859199966
128408.25	100	738	20	0	34	18	1	9	0	0	0	stim002_stimuli_original_animals_birds_2.png	L	0	0	0	539.314872100018	539.514872499974
128508.25	100	739	20	0	34	19	10	14	0	0	0	stim011_stimuli_original_vehicles_boats_3.png	V	0	0	0	539.714884400018	539.914882299956
128608.25	100	740	20	0	34	20	12	8	0	0	0	stim013_stimuli_original_vehicles_planes_1.png	K	0	0	0	540.114892499987	540.314918500022
128708.25	100	741	20	0	34	21	5	13	0	0	0	stim006_stimuli_original_animals_fish_2.png	U	0	0	0	540.514905899996	540.714905599947
128808.25	100	742	20	0	34	22	9	4	0	0	0	stim010_stimuli_original_vehicles_boats_2.png	E	0	0	0	540.914917099988	541.114915600047
128908.25	100	743	20	0	34	23	3	7	0	1	0	stim004_stimuli_original_animals_birds_4.png	J	0	0	0	541.314925899962	541.514927300042
129008.25	100	744	20	0	34	24	0	3	0	0	0	stim001_stimuli_original_animals_birds_1.png	D	0	0	0	541.714937399956	541.914937300025
129108.25	100	745	20	0	34	25	15	7	0	1	0	stim016_stimuli_original_vehicles_planes_4.png	J	0	0	0	542.114949199953	542.314949600026
129208.25	100	746	20	0	34	26	13	15	0	0	0	stim014_stimuli_original_vehicles_planes_2.png	Y	0	0	0	542.514962699963	542.714961600024
129308.25	100	747	20	0	34	27	0	12	1	0	0	stim001_stimuli_original_animals_birds_1.png	T	0	0	0	542.914973999956	543.114972100011
129408.25	100	748	20	0	34	28	2	7	0	0	0	stim003_stimuli_original_animals_birds_3.png	J	0	0	0	543.314981700038	543.514981899993
129508.25	100	749	20	0	34	29	0	0	1	0	1	stim001_stimuli_original_animals_birds_1.png	A	0	0	0	543.714995400049	543.914996900014
129608.25	100	750	20	0	34	30	4	5	0	0	0	stim005_stimuli_original_animals_fish_1.png	F	d	544.306801400031	1	544.11500390002	544.315003899974
129708.25	100	751	20	0	34	31	7	1	0	0	0	stim008_stimuli_original_animals_fish_4.png	B	0	0	0	544.51501610002	544.715018499992
129808.25	100	752	20	0	34	32	8	2	0	0	0	stim009_stimuli_original_vehicles_boats_1.png	C	0	0	0	544.915027400013	545.115026399959
129908.25	100	753	20	0	34	33	6	11	0	0	0	stim007_stimuli_original_animals_fish_3.png	R	0	0	0	545.315040000016	545.515038299956
130008.25	100	754	20	0	34	34	14	6	0	0	0	stim015_stimuli_original_vehicles_planes_3.png	G	0	0	0	545.715049399994	545.915048899944
130108.25	100	755	20	0	34	35	11	10	0	0	0	stim012_stimuli_original_vehicles_boats_4.png	Q	0	0	0	546.115059999982	546.315060999943
130941.5	100	756	21	1	40	0	12	0	0	0	0	stim013_stimuli_original_vehicles_planes_1.png	A	0	0	0	549.448496600031	549.648489700048
131041.5	100	757	21	1	40	1	15	11	0	0	0	stim016_stimuli_original_vehicles_planes_4.png	R	0	0	0	549.848498799955	550.048498800024
131141.5	100	758	21	1	40	2	14	8	0	0	0	stim015_stimuli_original_vehicles_planes_3.png	K	0	0	0	550.248509100056	550.448508700007
131241.5	100	759	21	1	40	3	10	5	0	0	0	stim011_stimuli_original_vehicles_boats_3.png	F	0	0	0	550.64853320003	550.8485201
131341.5	100	760	21	1	40	4	7	10	0	0	0	stim008_stimuli_original_animals_fish_4.png	Q	0	0	0	551.048530000029	551.24852969998
131441.5	100	761	21	1	40	5	0	6	0	0	0	stim001_stimuli_original_animals_birds_1.png	G	0	0	0	551.448541900027	551.648543899995
131541.5	100	762	21	1	40	6	3	4	0	0	0	stim004_stimuli_original_animals_birds_4.png	E	0	0	0	551.848550399998	552.048552699969
131641.5	100	763	21	1	40	7	2	13	0	0	0	stim003_stimuli_original_animals_birds_3.png	U	0	0	0	552.24856810004	552.448566599982
131741.5	100	764	21	1	40	8	9	1	1	0	0	stim010_stimuli_original_vehicles_boats_2.png	B	0	0	0	552.648578700027	552.848596299998
131841.5	100	765	21	1	40	9	1	9	0	0	0	stim002_stimuli_original_animals_birds_2.png	L	0	0	0	553.048585799988	553.248587199952
131941.5	100	766	21	1	40	10	9	12	1	0	0	stim010_stimuli_original_vehicles_boats_2.png	T	0	0	0	553.448611999978	553.648599799955
132041.5	100	767	21	1	40	11	11	14	0	0	0	stim012_stimuli_original_vehicles_boats_4.png	V	0	0	0	553.848608799977	554.04860920005
132141.5	100	768	21	1	40	12	4	1	0	1	0	stim005_stimuli_original_animals_fish_1.png	B	0	0	0	554.248621499981	554.448623799952
132241.5	100	769	21	1	40	13	8	7	0	0	0	stim009_stimuli_original_vehicles_boats_1.png	J	d	554.84042370005	0	554.648631999968	554.848627200001
132341.5	100	770	21	1	40	14	9	1	0	1	1	stim010_stimuli_original_vehicles_boats_2.png	B	0	0	0	555.04864980001	555.248641400016
132441.5	100	771	21	1	40	15	6	3	0	0	0	stim007_stimuli_original_animals_fish_3.png	D	0	0	0	555.448681800044	555.648656300036
132541.5	100	772	21	1	40	16	13	15	0	0	0	stim014_stimuli_original_vehicles_planes_2.png	Y	d	555.84125139995	1	555.848672399996	556.048675699974
132641.5	100	773	21	1	40	17	5	2	0	0	0	stim006_stimuli_original_animals_fish_2.png	C	0	0	0	556.248676700052	556.448680300033
132741.5	100	774	21	1	40	18	2	5	0	0	0	stim003_stimuli_original_animals_birds_3.png	F	0	0	0	556.648687900044	556.848683999968
132841.5	100	775	21	1	40	19	15	13	0	0	0	stim016_stimuli_original_vehicles_planes_4.png	U	0	0	0	557.048696900019	557.248705100035
132941.5	100	776	21	1	40	20	3	6	0	0	0	stim004_stimuli_original_animals_birds_4.png	G	0	0	0	557.44871050003	557.648709899979
133041.5	100	777	21	1	40	21	1	9	1	0	0	stim002_stimuli_original_animals_birds_2.png	L	0	0	0	557.848718099995	558.048737299978
133141.5	100	778	21	1	40	22	7	8	0	0	0	stim008_stimuli_original_animals_fish_4.png	K	0	0	0	558.248733800021	558.448730499949
133241.5	100	779	21	1	40	23	1	4	1	0	0	stim002_stimuli_original_animals_birds_2.png	E	0	0	0	558.64875329996	558.848741899943
133341.5	100	780	21	1	40	24	14	11	0	0	0	stim015_stimuli_original_vehicles_planes_3.png	R	0	0	0	559.048754399992	559.24875290005
133441.5	100	781	21	1	40	25	12	9	0	1	0	stim013_stimuli_original_vehicles_planes_1.png	L	0	0	0	559.448763599969	559.648764100042
133541.5	100	782	21	1	40	26	9	1	0	0	0	stim010_stimuli_original_vehicles_boats_2.png	B	0	0	0	559.848774299957	560.048775200034
133641.5	100	783	21	1	40	27	1	9	0	1	1	stim002_stimuli_original_animals_birds_2.png	L	0	0	0	560.248775499989	560.448787100031
133741.5	100	784	21	1	40	28	13	2	0	0	0	stim014_stimuli_original_vehicles_planes_2.png	C	d	560.84059919999	1	560.64880700002	560.848798500025
133841.5	100	785	21	1	40	29	4	3	0	0	0	stim005_stimuli_original_animals_fish_1.png	D	0	0	0	561.048809799948	561.248822099995
133941.5	100	786	21	1	40	30	6	0	0	0	0	stim007_stimuli_original_animals_fish_3.png	A	0	0	0	561.448820900056	561.648821500014
134041.5	100	787	21	1	40	31	10	7	0	0	0	stim011_stimuli_original_vehicles_boats_3.png	J	0	0	0	561.84882720001	562.048830099986
134141.5	100	788	21	1	40	32	5	10	0	0	0	stim006_stimuli_original_animals_fish_2.png	Q	0	0	0	562.248846999952	562.448843199993
134241.5	100	789	21	1	40	33	8	14	0	0	0	stim009_stimuli_original_vehicles_boats_1.png	V	0	0	0	562.648877899977	562.848882199964
134341.5	100	790	21	1	40	34	11	15	0	0	0	stim012_stimuli_original_vehicles_boats_4.png	Y	0	0	0	563.048867900041	563.248902200023
134441.75	100	791	21	1	40	35	0	12	0	0	0	stim001_stimuli_original_animals_birds_1.png	T	0	0	0	563.448908700026	563.648875099956
135458.25	100	792	22	0	25	0	7	13	0	0	0	stim008_stimuli_original_animals_fish_4.png	U	0	0	0	567.515658800025	567.715655499953
135558.25	100	793	22	0	25	1	1	11	0	0	0	stim002_stimuli_original_animals_birds_2.png	R	0	0	0	567.91566649999	568.115669899969
135658.25	100	794	22	0	25	2	15	15	0	0	0	stim016_stimuli_original_vehicles_planes_4.png	Y	0	0	0	568.315678299987	568.515676700044
135758.25	100	795	22	0	25	3	2	8	0	0	0	stim003_stimuli_original_animals_birds_3.png	K	0	0	0	568.715691799996	568.915692199953
135858.25	100	796	22	0	25	4	4	2	0	0	0	stim005_stimuli_original_animals_fish_1.png	C	0	0	0	569.115703899995	569.315700500039
135958.25	100	797	22	0	25	5	9	5	0	0	0	stim010_stimuli_original_vehicles_boats_2.png	F	0	0	0	569.515713199973	569.715711000026
