onset	duration	eventnumber	sequencenumber	condition	streamnumber	stimnumber	objectstimnumber	letterstimnumber	objecttarget	lettertarget	is2back	objectstim	letterstim	response	rt	correct	time_stimon	time_stimoff
16009.5	100	0	0	1	22	0	13	4	0	0	0	stim014_stimuli_original_vehicles_planes_2.png	E	0	0	0	79.79815100017	79.9981590001844
16109.75	100	1	0	1	22	1	15	7	0	0	0	stim016_stimuli_original_vehicles_planes_4.png	J	0	0	0	80.198726200033	80.3981546000578
16209.5	100	2	0	1	22	2	14	2	0	0	0	stim015_stimuli_original_vehicles_planes_3.png	C	0	0	0	80.598156100139	80.7981547000818
16309.5	100	3	0	1	22	3	10	11	0	0	0	stim011_stimuli_original_vehicles_boats_3.png	R	0	0	0	80.9981660000049	81.1981642001774
16409.5	100	4	0	1	22	4	3	12	0	0	0	stim004_stimuli_original_animals_birds_4.png	T	0	0	0	81.3981763001066	81.5981753000524
16509.5	100	5	0	1	22	5	2	5	0	0	0	stim003_stimuli_original_animals_birds_3.png	F	0	0	0	81.7981880002189	81.9981882001739
16609.5	100	6	0	1	22	6	1	6	0	0	0	stim002_stimuli_original_animals_birds_2.png	G	0	0	0	82.1981991000939	82.3981988001615
16709.5	100	7	0	1	22	7	15	10	1	0	0	stim016_stimuli_original_vehicles_planes_4.png	Q	0	0	0	82.598209900083	82.7982068001293
16809.5	100	8	0	1	22	8	8	8	0	0	0	stim009_stimuli_original_vehicles_boats_1.png	K	0	0	0	82.9982213000767	83.1982191000134
16909.5	100	9	0	1	22	9	15	15	1	0	0	stim016_stimuli_original_vehicles_planes_4.png	Y	0	0	0	83.3982316001784	83.5982292999979
17009.5	100	10	0	1	22	10	9	9	0	0	0	stim010_stimuli_original_vehicles_boats_2.png	L	0	0	0	83.7982640000992	83.9982530002017
17109.5	100	11	0	1	22	11	0	7	0	1	0	stim001_stimuli_original_animals_birds_1.png	J	0	0	0	84.1982625999954	84.3982670002151
17209.5	100	12	0	1	22	12	5	0	0	0	0	stim006_stimuli_original_animals_fish_2.png	A	0	0	0	84.5982612001244	84.7982622000854
17309.5	100	13	0	1	22	13	11	7	0	1	1	stim012_stimuli_original_vehicles_boats_4.png	J	0	0	0	84.9982741000131	85.1982716000639
17409.5	100	14	0	1	22	14	7	13	0	0	0	stim008_stimuli_original_animals_fish_4.png	U	0	0	0	85.3982842999976	85.598519799998
17509.5	100	15	0	1	22	15	12	14	0	0	0	stim013_stimuli_original_vehicles_planes_1.png	V	0	0	0	85.7982982001267	85.9982983001973
17609.5	100	16	0	1	22	16	6	3	0	0	0	stim007_stimuli_original_animals_fish_3.png	D	0	0	0	86.1983048000839	86.3983038000297
17709.5	100	17	0	1	22	17	4	1	0	0	0	stim005_stimuli_original_animals_fish_1.png	B	0	0	0	86.5983176000882	86.7983160000294
17809.5	100	18	0	1	22	18	1	4	0	0	0	stim002_stimuli_original_animals_birds_2.png	E	0	0	0	86.9983274000697	87.1983258000109
17909.5	100	19	0	1	22	19	3	6	0	0	0	stim004_stimuli_original_animals_birds_4.png	G	0	0	0	87.3983370000497	87.5983372000046
18009.5	100	20	0	1	22	20	14	12	0	0	0	stim015_stimuli_original_vehicles_planes_3.png	T	0	0	0	87.7983548000921	87.9983461000957
18109.5	100	21	0	1	22	21	13	7	0	0	0	stim014_stimuli_original_vehicles_planes_2.png	J	0	0	0	88.1983585001435	88.3983581000939
18209.5	100	22	0	1	22	22	7	11	1	0	0	stim008_stimuli_original_animals_fish_4.png	R	0	0	0	88.5983678000048	88.7983688001987
18309.5	100	23	0	1	22	23	0	5	0	0	0	stim001_stimuli_original_animals_birds_1.png	F	f	89.190175200114	0	88.9983789001126	89.1983817000873
18409.5	100	24	0	1	22	24	7	0	1	0	0	stim008_stimuli_original_animals_fish_4.png	A	0	0	0	89.3983913001139	89.5983909000643
18509.5	100	25	0	1	22	25	9	9	0	0	0	stim010_stimuli_original_vehicles_boats_2.png	L	0	0	0	89.7984045001213	89.998401200166
18609.5	100	26	0	1	22	26	15	15	0	1	0	stim016_stimuli_original_vehicles_planes_4.png	Y	0	0	0	90.198412100086	90.3984142001718
18709.5	100	27	0	1	22	27	8	8	0	0	0	stim009_stimuli_original_vehicles_boats_1.png	K	0	0	0	90.5984231000766	90.7984244001564
18809.5	100	28	0	1	22	28	10	15	0	1	1	stim011_stimuli_original_vehicles_boats_3.png	Y	0	0	0	90.9984336001799	91.1984326001257
18909.5	100	29	0	1	22	29	6	1	0	0	0	stim007_stimuli_original_animals_fish_3.png	B	f	91.5902488001157	1	91.3984447000548	91.5984556002077
19009.5	100	30	0	1	22	30	5	2	0	0	0	stim006_stimuli_original_animals_fish_2.png	C	0	0	0	91.7984677001368	91.9984728000127
19109.5	100	31	0	1	22	31	12	3	0	0	0	stim013_stimuli_original_vehicles_planes_1.png	D	0	0	0	92.1984790000133	92.3984748001676
19209.5	100	32	0	1	22	32	11	10	0	0	0	stim012_stimuli_original_vehicles_boats_4.png	Q	0	0	0	92.5984882002231	92.7984872001689
19309.5	100	33	0	1	22	33	2	14	0	0	0	stim003_stimuli_original_animals_birds_3.png	V	0	0	0	92.9985162001103	93.1984981000423
19409.5	100	34	0	1	22	34	7	15	0	0	0	stim008_stimuli_original_animals_fish_4.png	Y	0	0	0	93.3985118002165	93.5985121000558
19509.5	100	35	0	1	22	35	4	13	0	0	0	stim005_stimuli_original_animals_fish_1.png	U	0	0	0	93.7985193000641	93.9985197000206
21947.25	100	36	1	0	41	0	7	3	0	0	0	stim008_stimuli_original_animals_fish_4.png	D	0	0	0	103.548770599999	103.748770400183
22047.25	100	37	1	0	41	1	10	14	0	0	0	stim011_stimuli_original_vehicles_boats_3.png	V	0	0	0	103.948781000217	104.148780000163
22147.25	100	38	1	0	41	2	14	2	0	0	0	stim015_stimuli_original_vehicles_planes_3.png	C	0	0	0	104.348794799997	104.548792600166
22247.25	100	39	1	0	41	3	4	10	0	0	0	stim005_stimuli_original_animals_fish_1.png	Q	0	0	0	104.748805100098	104.948800500017
22347.25	100	40	1	0	41	4	12	15	0	0	0	stim013_stimuli_original_vehicles_planes_1.png	Y	0	0	0	105.148813500069	105.348813100019
22447.25	100	41	1	0	41	5	15	1	0	1	0	stim016_stimuli_original_vehicles_planes_4.png	B	0	0	0	105.548823500052	105.748821500223
22547.25	100	42	1	0	41	6	13	11	0	0	0	stim014_stimuli_original_vehicles_planes_2.png	R	0	0	0	105.948833700037	106.148834400112
22647.25	100	43	1	0	41	7	11	1	0	1	0	stim012_stimuli_original_vehicles_boats_4.png	B	0	0	0	106.348846400157	106.548844600096
22747.25	100	44	1	0	41	8	1	9	0	0	0	stim002_stimuli_original_animals_birds_2.png	L	0	0	0	106.74885730003	106.948853600072
22847.25	100	45	1	0	41	9	5	5	0	0	0	stim006_stimuli_original_animals_fish_2.png	F	0	0	0	107.148867700016	107.348865900189
22947.25	100	46	1	0	41	10	12	13	1	0	0	stim013_stimuli_original_vehicles_planes_1.png	U	0	0	0	107.548878200119	107.748877500184
23047.25	100	47	1	0	41	11	8	12	0	0	0	stim009_stimuli_original_vehicles_boats_1.png	T	0	0	0	107.948887800099	108.148886100156
23147.25	100	48	1	0	41	12	12	0	1	0	1	stim013_stimuli_original_vehicles_planes_1.png	A	0	0	0	108.348900700221	108.54889700003
23247.25	100	49	1	0	41	13	6	1	0	0	0	stim007_stimuli_original_animals_fish_3.png	B	0	0	0	108.748909600079	108.948914800072
23347.25	100	50	1	0	41	14	2	7	0	0	0	stim003_stimuli_original_animals_birds_3.png	J	f	109.340716200182	1	109.148918200051	109.348918800009
23447.25	100	51	1	0	41	15	3	4	0	0	0	stim004_stimuli_original_animals_birds_4.png	E	0	0	0	109.548937800108	109.748931000009
23547.25	100	52	1	0	41	16	9	8	0	0	0	stim010_stimuli_original_vehicles_boats_2.png	K	0	0	0	109.948942700168	110.148941799998
23647.25	100	53	1	0	41	17	0	6	0	0	0	stim001_stimuli_original_animals_birds_1.png	G	0	0	0	110.34895130014	110.548949900083
23747.25	100	54	1	0	41	18	6	0	0	0	0	stim007_stimuli_original_animals_fish_3.png	A	0	0	0	110.748964200029	110.948961500078
23847.25	100	55	1	0	41	19	8	9	0	0	0	stim009_stimuli_original_vehicles_boats_1.png	L	0	0	0	111.148973900126	111.348972000182
23947.25	100	56	1	0	41	20	4	3	0	0	0	stim005_stimuli_original_animals_fish_1.png	D	0	0	0	111.548985000001	111.748984300066
24047.25	100	57	1	0	41	21	7	2	0	0	0	stim008_stimuli_original_animals_fish_4.png	C	0	0	0	111.948993500089	112.149000800215
24147.25	100	58	1	0	41	22	1	6	0	0	0	stim002_stimuli_original_animals_birds_2.png	G	0	0	0	112.349006200209	112.549005500041
24247.25	100	59	1	0	41	23	0	12	0	1	0	stim001_stimuli_original_animals_birds_1.png	T	0	0	0	112.749021300115	112.949014400132
24347.25	100	60	1	0	41	24	12	8	0	0	0	stim013_stimuli_original_vehicles_planes_1.png	K	0	0	0	113.149026400177	113.349026000127
24447.25	100	61	1	0	41	25	13	12	0	1	0	stim014_stimuli_original_vehicles_planes_2.png	T	0	0	0	113.549038500059	113.749044600176
24547.25	100	62	1	0	41	26	5	5	0	0	0	stim006_stimuli_original_animals_fish_2.png	F	0	0	0	113.94905210007	114.149045900209
24647.25	100	63	1	0	41	27	9	1	0	0	0	stim010_stimuli_original_vehicles_boats_2.png	B	0	0	0	114.349058600143	114.54905780009
24747.25	100	64	1	0	41	28	1	11	1	0	0	stim002_stimuli_original_animals_birds_2.png	R	0	0	0	114.749068800127	114.949068700196
24847.25	100	65	1	0	41	29	11	13	0	0	0	stim012_stimuli_original_vehicles_boats_4.png	U	0	0	0	115.149080700008	115.349079300184
24947.25	100	66	1	0	41	30	1	15	1	0	1	stim002_stimuli_original_animals_birds_2.png	Y	0	0	0	115.549091800116	115.749091800069
25047.25	100	67	1	0	41	31	15	12	0	0	0	stim016_stimuli_original_vehicles_planes_4.png	T	f	116.140896300087	1	115.949102200102	116.149101000046
25147.25	100	68	1	0	41	32	10	4	0	0	0	stim011_stimuli_original_vehicles_boats_3.png	E	0	0	0	116.349117100006	116.549111700151
25247.25	100	69	1	0	41	33	2	14	0	0	0	stim003_stimuli_original_animals_birds_3.png	V	0	0	0	116.749122600071	116.949122700142
25347.25	100	70	1	0	41	34	14	10	0	0	0	stim015_stimuli_original_vehicles_planes_3.png	Q	0	0	0	117.14913390018	117.349133400014
25447.25	100	71	1	0	41	35	3	7	0	0	0	stim004_stimuli_original_animals_birds_4.png	J	0	0	0	117.549144600052	117.749146000016
26343	100	72	2	1	39	0	14	10	0	0	0	stim015_stimuli_original_vehicles_planes_3.png	Q	0	0	0	121.132599500008	121.332595900167
26443	100	73	2	1	39	1	4	7	0	0	0	stim005_stimuli_original_animals_fish_1.png	J	0	0	0	121.532608000096	121.732613100205
26543	100	74	2	1	39	2	6	4	0	0	0	stim007_stimuli_original_animals_fish_3.png	E	0	0	0	121.932616900187	122.132619400043
26643.25	100	75	2	1	39	3	7	11	0	0	0	stim008_stimuli_original_animals_fish_4.png	R	0	0	0	122.332634000108	122.53262770013
26743.25	100	76	2	1	39	4	1	13	0	0	0	stim002_stimuli_original_animals_birds_2.png	U	0	0	0	122.732643000083	122.932638900122
26843.25	100	77	2	1	39	5	8	6	0	0	0	stim009_stimuli_original_vehicles_boats_1.png	G	0	0	0	123.132655600086	123.332669600146
26943.25	100	78	2	1	39	6	3	12	0	0	0	stim004_stimuli_original_animals_birds_4.png	T	0	0	0	123.532696900191	123.732666500146
27043.25	100	79	2	1	39	7	10	9	0	0	0	stim011_stimuli_original_vehicles_boats_3.png	L	0	0	0	123.932664700085	124.132678400027
27143.25	100	80	2	1	39	8	5	15	0	0	0	stim006_stimuli_original_animals_fish_2.png	Y	0	0	0	124.332687400049	124.532687300118
27243.25	100	81	2	1	39	9	0	14	0	0	0	stim001_stimuli_original_animals_birds_1.png	V	0	0	0	124.732689500088	124.932699800003
27343.25	100	82	2	1	39	10	10	6	1	1	0	stim011_stimuli_original_vehicles_boats_3.png	G	0	0	0	125.1327033001	125.332708200207
27443.25	100	83	2	1	39	11	15	8	0	0	0	stim016_stimuli_original_vehicles_planes_4.png	K	0	0	0	125.532696300186	125.732712600147
27543.25	100	84	2	1	39	12	10	6	1	1	1	stim011_stimuli_original_vehicles_boats_3.png	G	0	0	0	125.932743000099	126.132750400109
27643.25	100	85	2	1	39	13	2	1	0	0	0	stim003_stimuli_original_animals_birds_3.png	B	0	0	0	126.332741999999	126.53273740015
27743.25	100	86	2	1	39	14	11	2	0	0	0	stim012_stimuli_original_vehicles_boats_4.png	C	f	126.725267600035	1	126.732749900082	126.932752600173
27843.25	100	87	2	1	39	15	13	3	0	0	0	stim014_stimuli_original_vehicles_planes_2.png	D	0	0	0	127.132761200191	127.332757800119
27943.25	100	88	2	1	39	16	9	0	0	0	0	stim010_stimuli_original_vehicles_boats_2.png	A	0	0	0	127.532772500068	127.732771100011
28043.25	100	89	2	1	39	17	12	5	0	0	0	stim013_stimuli_original_vehicles_planes_1.png	F	0	0	0	127.932781000156	128.132763000205
28143.25	100	90	2	1	39	18	5	12	0	0	0	stim006_stimuli_original_animals_fish_2.png	T	0	0	0	128.33279240015	128.532797700027
28243.25	100	91	2	1	39	19	0	9	0	0	0	stim001_stimuli_original_animals_birds_1.png	L	0	0	0	128.732802200131	128.932803500211
28343.25	100	92	2	1	39	20	3	13	0	0	0	stim004_stimuli_original_animals_birds_4.png	U	0	0	0	129.132814000128	129.332818000112
28443.25	100	93	2	1	39	21	2	11	0	0	0	stim003_stimuli_original_animals_birds_3.png	R	0	0	0	129.532827900024	129.732809900073
28543.25	100	94	2	1	39	22	1	2	0	0	0	stim002_stimuli_original_animals_birds_2.png	C	0	0	0	129.932836800115	130.132838400081
28643.25	100	95	2	1	39	23	6	10	1	1	0	stim007_stimuli_original_animals_fish_3.png	Q	0	0	0	130.332849000115	130.532845900161
28743.25	100	96	2	1	39	24	8	15	0	0	0	stim009_stimuli_original_vehicles_boats_1.png	Y	0	0	0	130.732834800147	130.932858500164
28843.25	100	97	2	1	39	25	6	10	1	1	1	stim007_stimuli_original_animals_fish_3.png	Q	0	0	0	131.132871000096	131.3328602002
28943.25	100	98	2	1	39	26	14	0	0	0	0	stim015_stimuli_original_vehicles_planes_3.png	A	0	0	0	131.532879700186	131.732879600022
29043.25	100	99	2	1	39	27	15	5	0	0	0	stim016_stimuli_original_vehicles_planes_4.png	F	0	0	0	131.93288850016	132.132900500204
29143.25	100	100	2	1	39	28	9	10	0	0	0	stim010_stimuli_original_vehicles_boats_2.png	Q	0	0	0	132.332900200039	132.532902400009
29243.25	100	101	2	1	39	29	12	3	0	0	0	stim013_stimuli_original_vehicles_planes_1.png	D	0	0	0	132.732910800027	132.932912900113
29343.25	100	102	2	1	39	30	6	8	0	0	0	stim007_stimuli_original_animals_fish_3.png	K	0	0	0	133.132921400014	133.332934200065
29443.25	100	103	2	1	39	31	13	1	0	0	0	stim014_stimuli_original_vehicles_planes_2.png	B	0	0	0	133.532931599999	133.732935900101
29543.25	100	104	2	1	39	32	11	7	0	0	0	stim012_stimuli_original_vehicles_boats_4.png	J	0	0	0	133.932948900154	134.13292650017
29643.25	100	105	2	1	39	33	4	6	0	0	0	stim005_stimuli_original_animals_fish_1.png	G	0	0	0	134.332955100108	134.532954500057
29743.25	100	106	2	1	39	34	7	4	0	0	0	stim008_stimuli_original_animals_fish_4.png	E	0	0	0	134.732965800213	134.932964300038
29843.25	100	107	2	1	39	35	10	14	0	0	0	stim011_stimuli_original_vehicles_boats_3.png	V	0	0	0	135.13297590008	135.332978200167
34410	100	108	3	0	40	0	4	7	0	0	0	stim005_stimuli_original_animals_fish_1.png	J	0	0	0	153.400133600226	153.600134200184
34510	100	109	3	0	40	1	6	5	0	0	0	stim007_stimuli_original_animals_fish_3.png	F	0	0	0	153.800127900206	154.000133200083
34610	100	110	3	0	40	2	14	14	0	0	0	stim015_stimuli_original_vehicles_planes_3.png	V	0	0	0	154.200145500014	154.40013980004
34710	100	111	3	0	40	3	7	2	0	0	0	stim008_stimuli_original_animals_fish_4.png	C	0	0	0	154.60015030019	154.800148200011
34810	100	112	3	0	40	4	3	3	0	0	0	stim004_stimuli_original_animals_birds_4.png	D	0	0	0	155.00016250019	155.200159
34910	100	113	3	0	40	5	5	15	0	0	0	stim006_stimuli_original_animals_fish_2.png	Y	0	0	0	155.400169900153	155.600197800202
35010	100	114	3	0	40	6	0	4	0	0	0	stim001_stimuli_original_animals_birds_1.png	E	0	0	0	155.800183000043	156.000182600226
35110	100	115	3	0	40	7	13	9	0	0	0	stim014_stimuli_original_vehicles_planes_2.png	L	0	0	0	156.200208800146	156.400192800211
35210	100	116	3	0	40	8	5	12	1	0	0	stim006_stimuli_original_animals_fish_2.png	T	0	0	0	156.600202900125	156.800203700084
35310	100	117	3	0	40	9	10	0	0	0	0	stim011_stimuli_original_vehicles_boats_3.png	A	0	0	0	157.000211100094	157.200211200165
35410	100	118	3	0	40	10	5	1	1	1	1	stim006_stimuli_original_animals_fish_2.png	B	0	0	0	157.400224900106	157.600223500049
35510	100	119	3	0	40	11	1	13	0	0	0	stim002_stimuli_original_animals_birds_2.png	U	f	157.992026100168	1	157.800235800212	158.000236500055
35610	100	120	3	0	40	12	12	1	0	1	0	stim013_stimuli_original_vehicles_planes_1.png	B	0	0	0	158.200263800099	158.400246800156
35710	100	121	3	0	40	13	11	8	0	0	0	stim012_stimuli_original_vehicles_boats_4.png	K	0	0	0	158.600257300073	158.800255700015
35810	100	122	3	0	40	14	9	6	0	0	0	stim010_stimuli_original_vehicles_boats_2.png	G	0	0	0	159.000267200172	159.200266600121
35910	100	123	3	0	40	15	2	10	0	0	0	stim003_stimuli_original_animals_birds_3.png	Q	0	0	0	159.400279800175	159.600279300008
36010	100	124	3	0	40	16	8	11	0	0	0	stim009_stimuli_original_vehicles_boats_1.png	R	0	0	0	159.80028830003	160.000288900221
36110	100	125	3	0	40	17	15	1	0	0	0	stim016_stimuli_original_vehicles_planes_4.png	B	0	0	0	160.200298800133	160.400317799998
36210	100	126	3	0	40	18	1	15	0	0	0	stim002_stimuli_original_animals_birds_2.png	Y	0	0	0	160.600315400166	160.800315100001
36310	100	127	3	0	40	19	11	8	0	0	0	stim012_stimuli_original_vehicles_boats_4.png	K	0	0	0	161.000338300131	161.200319400057
36410	100	128	3	0	40	20	10	2	0	0	0	stim011_stimuli_original_vehicles_boats_3.png	C	0	0	0	161.400330900215	161.600331900176
36510	100	129	3	0	40	21	6	9	0	0	0	stim007_stimuli_original_animals_fish_3.png	L	0	0	0	161.800343100214	162.000340800034
36610	100	130	3	0	40	22	8	11	0	0	0	stim009_stimuli_original_vehicles_boats_1.png	R	0	0	0	162.200354600092	162.400353700155
36710	100	131	3	0	40	23	1	12	1	0	0	stim002_stimuli_original_animals_birds_2.png	T	0	0	0	162.600363000063	162.800366100157
36810	100	132	3	0	40	24	13	1	0	0	0	stim014_stimuli_original_vehicles_planes_2.png	B	0	0	0	163.000369200017	163.200374300126
36910	100	133	3	0	40	25	1	5	1	1	1	stim002_stimuli_original_animals_birds_2.png	F	0	0	0	163.400402500061	163.600400700001
37010	100	134	3	0	40	26	0	10	0	0	0	stim001_stimuli_original_animals_birds_1.png	Q	0	0	0	163.800395100145	164.000406700186
37110	100	135	3	0	40	27	12	5	0	1	0	stim013_stimuli_original_vehicles_planes_1.png	F	f	164.193041200051	1	164.200406000018	164.400409300113
37210	100	136	3	0	40	28	9	13	0	0	0	stim010_stimuli_original_vehicles_boats_2.png	U	0	0	0	164.60041770013	164.800417000195
37310	100	137	3	0	40	29	4	0	0	0	0	stim005_stimuli_original_animals_fish_1.png	A	0	0	0	165.000429100124	165.20042810007
37410	100	138	3	0	40	30	15	5	0	0	0	stim016_stimuli_original_vehicles_planes_4.png	F	0	0	0	165.400436300086	165.600460200105
37510	100	139	3	0	40	31	3	3	0	0	0	stim004_stimuli_original_animals_birds_4.png	D	0	0	0	165.800449300092	166.000447600149
37610	100	140	3	0	40	32	2	7	0	0	0	stim003_stimuli_original_animals_birds_3.png	J	0	0	0	166.2004757002	166.400459000142
37710	100	141	3	0	40	33	14	14	0	0	0	stim015_stimuli_original_vehicles_planes_3.png	V	0	0	0	166.600469600176	166.800471000141
37810	100	142	3	0	40	34	5	6	0	0	0	stim006_stimuli_original_animals_fish_2.png	G	0	0	0	167.000486800214	167.200482900022
37910	100	143	3	0	40	35	7	4	0	0	0	stim008_stimuli_original_animals_fish_4.png	E	0	0	0	167.400492300047	167.600495700026
39101.75	100	144	4	1	11	0	15	7	0	0	0	stim016_stimuli_original_vehicles_planes_4.png	J	0	0	0	172.167302100221	172.367297400022
39201.75	100	145	4	1	11	1	0	0	0	0	0	stim001_stimuli_original_animals_birds_1.png	A	0	0	0	172.567313000094	172.767310300143
39301.75	100	146	4	1	11	2	14	8	0	0	0	stim015_stimuli_original_vehicles_planes_3.png	K	0	0	0	172.967299600132	173.167298000073
39401.75	100	147	4	1	11	3	5	13	0	0	0	stim006_stimuli_original_animals_fish_2.png	U	0	0	0	173.367309200112	173.567329200218
39501.75	100	148	4	1	11	4	9	14	0	0	0	stim010_stimuli_original_vehicles_boats_2.png	V	0	0	0	173.767328100046	173.967342999997
39601.75	100	149	4	1	11	5	7	4	0	0	0	stim008_stimuli_original_animals_fish_4.png	E	0	0	0	174.167342800181	174.367342000129
39701.75	100	150	4	1	11	6	12	11	0	0	0	stim013_stimuli_original_vehicles_planes_1.png	R	0	0	0	174.567352900049	174.767339200014
39801.75	100	151	4	1	11	7	10	1	0	0	0	stim011_stimuli_original_vehicles_boats_3.png	B	0	0	0	174.967351800064	175.167351600016
39901.75	100	152	4	1	11	8	3	9	0	0	0	stim004_stimuli_original_animals_birds_4.png	L	0	0	0	175.367361400044	175.567377800122
40001.75	100	153	4	1	11	9	13	2	0	0	0	stim014_stimuli_original_vehicles_planes_2.png	C	0	0	0	175.767372700153	175.967371200211
40101.75	100	154	4	1	11	10	8	3	1	0	0	stim009_stimuli_original_vehicles_boats_1.png	D	0	0	0	176.167419500183	176.367382400203
40201.75	100	155	4	1	11	11	4	6	0	0	0	stim005_stimuli_original_animals_fish_1.png	G	0	0	0	176.567411700031	176.767395200208
40301.75	100	156	4	1	11	12	8	14	1	1	0	stim009_stimuli_original_vehicles_boats_1.png	V	0	0	0	176.967405700125	177.167405700078
40401.75	100	157	4	1	11	13	2	10	0	0	0	stim003_stimuli_original_animals_birds_3.png	Q	0	0	0	177.367415100103	177.567428800045
40501.75	100	158	4	1	11	14	6	14	0	1	1	stim007_stimuli_original_animals_fish_3.png	V	0	0	0	177.767427500105	177.967424900038
40601.75	100	159	4	1	11	15	1	15	0	0	0	stim002_stimuli_original_animals_birds_2.png	Y	0	0	0	178.167436900083	178.367435400141
40701.75	100	160	4	1	11	16	8	12	0	0	0	stim009_stimuli_original_vehicles_boats_1.png	T	0	0	0	178.567465000087	178.767473800108
40801.75	100	161	4	1	11	17	11	5	0	0	0	stim012_stimuli_original_vehicles_boats_4.png	F	0	0	0	178.967464600224	179.167458000127
40901.75	100	162	4	1	11	18	5	11	0	0	0	stim006_stimuli_original_animals_fish_2.png	R	0	0	0	179.367498400155	179.567482500104
41001.75	100	163	4	1	11	19	12	8	0	0	0	stim013_stimuli_original_vehicles_planes_1.png	K	0	0	0	179.76748150005	179.967478600098
41101.75	100	164	4	1	11	20	15	1	0	0	0	stim016_stimuli_original_vehicles_planes_4.png	B	0	0	0	180.16749110003	180.367490100209
41201.75	100	165	4	1	11	21	14	6	1	0	0	stim015_stimuli_original_vehicles_planes_3.png	G	0	0	0	180.567517900141	180.767501200084
41301.75	100	166	4	1	11	22	10	2	0	0	0	stim011_stimuli_original_vehicles_boats_3.png	C	0	0	0	180.967517000157	181.167539200047
41401.75	100	167	4	1	11	23	14	8	1	1	0	stim015_stimuli_original_vehicles_planes_3.png	K	0	0	0	181.367538200226	181.567539400188
41501.75	100	168	4	1	11	24	6	4	0	0	0	stim007_stimuli_original_animals_fish_3.png	E	0	0	0	181.767532700207	181.96755270008
41601.75	100	169	4	1	11	25	3	8	0	1	1	stim004_stimuli_original_animals_birds_4.png	K	0	0	0	182.167543300195	182.36754350015
41701.75	100	170	4	1	11	26	2	13	0	0	0	stim003_stimuli_original_animals_birds_3.png	U	0	0	0	182.56757110008	182.76755400002
41801.75	100	171	4	1	11	27	9	3	0	0	0	stim010_stimuli_original_vehicles_boats_2.png	D	0	0	0	182.967567000072	183.167564600008
41901.75	100	172	4	1	11	28	1	10	0	0	0	stim002_stimuli_original_animals_birds_2.png	Q	0	0	0	183.367575800046	183.567592000123
42001.75	100	173	4	1	11	29	11	12	0	0	0	stim012_stimuli_original_vehicles_boats_4.png	T	0	0	0	183.767588000046	183.967596300179
42101.75	100	174	4	1	11	30	4	7	0	0	0	stim005_stimuli_original_animals_fish_1.png	J	0	0	0	184.167597100139	184.367597300094
42201.75	100	175	4	1	11	31	14	9	0	0	0	stim015_stimuli_original_vehicles_planes_3.png	L	0	0	0	184.567621000111	184.767609000206
42301.75	100	176	4	1	11	32	13	5	0	0	0	stim014_stimuli_original_vehicles_planes_2.png	F	0	0	0	184.967619300121	185.167619200191
42401.75	100	177	4	1	11	33	8	14	0	0	0	stim009_stimuli_original_vehicles_boats_1.png	V	0	0	0	185.367629500106	185.567641600035
42501.75	100	178	4	1	11	34	0	0	0	0	0	stim001_stimuli_original_animals_birds_1.png	A	0	0	0	185.767642700113	185.96763840015
42601.75	100	179	4	1	11	35	7	15	0	0	0	stim008_stimuli_original_animals_fish_4.png	Y	0	0	0	186.167681500083	186.367648900021
45889.5	100	180	5	0	32	0	8	0	0	0	0	stim009_stimuli_original_vehicles_boats_1.png	A	0	0	0	199.318006700138	199.518002900062
45989.5	100	181	5	0	32	1	6	8	0	0	0	stim007_stimuli_original_animals_fish_3.png	K	0	0	0	199.718016900122	199.918013400165
46089.5	100	182	5	0	32	2	4	1	0	0	0	stim005_stimuli_original_animals_fish_1.png	B	0	0	0	200.118025800213	200.318026500056
46189.5	100	183	5	0	32	3	5	13	0	0	0	stim006_stimuli_original_animals_fish_2.png	U	0	0	0	200.518038300099	200.718034400139
46289.5	100	184	5	0	32	4	14	12	0	0	0	stim015_stimuli_original_vehicles_planes_3.png	T	0	0	0	200.918049700093	201.11804540013
46389.5	100	185	5	0	32	5	12	5	0	0	0	stim013_stimuli_original_vehicles_planes_1.png	F	0	0	0	201.318057900062	201.518054400105
46489.5	100	186	5	0	32	6	3	2	0	0	0	stim004_stimuli_original_animals_birds_4.png	C	0	0	0	201.718068400165	201.918066900223
46589.5	100	187	5	0	32	7	15	10	1	0	0	stim016_stimuli_original_vehicles_planes_4.png	Q	0	0	0	202.118079200154	202.318078300217
46689.5	100	188	5	0	32	8	9	9	0	0	0	stim010_stimuli_original_vehicles_boats_2.png	L	0	0	0	202.518089500023	202.718087600078
46789.5	100	189	5	0	32	9	15	12	1	1	1	stim016_stimuli_original_vehicles_planes_4.png	T	0	0	0	202.918104200158	203.118113000179
46889.5	100	190	5	0	32	10	11	15	0	0	0	stim012_stimuli_original_vehicles_boats_4.png	Y	0	0	0	203.318110800115	203.518109800061
46989.5	100	191	5	0	32	11	0	12	0	1	0	stim001_stimuli_original_animals_birds_1.png	T	0	0	0	203.718144400045	203.918135600165
47089.5	100	192	5	0	32	12	2	6	0	0	0	stim003_stimuli_original_animals_birds_3.png	G	0	0	0	204.118147700094	204.318144700024
47189.5	100	193	5	0	32	13	7	11	0	0	0	stim008_stimuli_original_animals_fish_4.png	R	0	0	0	204.518153500045	204.718155000126
47289.5	100	194	5	0	32	14	13	7	0	0	0	stim014_stimuli_original_vehicles_planes_2.png	J	0	0	0	204.918163400143	205.118168800138
47389.5	100	195	5	0	32	15	15	3	0	0	0	stim016_stimuli_original_vehicles_planes_4.png	D	0	0	0	205.318176400149	205.518175000092
47489.5	100	196	5	0	32	16	10	14	0	0	0	stim011_stimuli_original_vehicles_boats_3.png	V	0	0	0	205.718187500024	205.9181861002
47589.5	100	197	5	0	32	17	1	4	0	0	0	stim002_stimuli_original_animals_birds_2.png	E	0	0	0	206.11819960014	206.318199600093
47689.5	100	198	5	0	32	18	4	1	0	0	0	stim005_stimuli_original_animals_fish_1.png	B	0	0	0	206.518196400022	206.718199100113
47789.5	100	199	5	0	32	19	14	10	0	0	0	stim015_stimuli_original_vehicles_planes_3.png	Q	0	0	0	206.918208500138	207.118209300097
47889.5	100	200	5	0	32	20	3	15	0	0	0	stim004_stimuli_original_animals_birds_4.png	Y	0	0	0	207.318221400026	207.518216100056
47989.5	100	201	5	0	32	21	7	13	0	0	0	stim008_stimuli_original_animals_fish_4.png	U	0	0	0	207.71823070012	207.91822630004
48089.5	100	202	5	0	32	22	11	7	0	0	0	stim012_stimuli_original_vehicles_boats_4.png	J	0	0	0	208.118240700103	208.318240000168
48189.5	100	203	5	0	32	23	6	2	0	0	0	stim007_stimuli_original_animals_fish_3.png	C	0	0	0	208.518248900073	208.718250300037
48289.5	100	204	5	0	32	24	12	0	1	0	0	stim013_stimuli_original_vehicles_planes_1.png	A	0	0	0	208.918260800187	209.118260700023
48389.5	100	205	5	0	32	25	15	11	0	0	0	stim016_stimuli_original_vehicles_planes_4.png	R	0	0	0	209.318272600183	209.518269600114
48489.5	100	206	5	0	32	26	12	15	1	1	1	stim013_stimuli_original_vehicles_planes_1.png	Y	0	0	0	209.718283500057	209.91828260012
48589.5	100	207	5	0	32	27	9	9	0	0	0	stim010_stimuli_original_vehicles_boats_2.png	L	0	0	0	210.118300200207	210.318299800158
48689.5	100	208	5	0	32	28	10	15	0	1	0	stim011_stimuli_original_vehicles_boats_3.png	Y	f	210.510880600195	1	210.518304200144	210.718304800102
48789.5	100	209	5	0	32	29	2	3	0	0	0	stim003_stimuli_original_animals_birds_3.png	D	0	0	0	210.918316800147	211.11831330019
48889.5	100	210	5	0	32	30	5	12	0	0	0	stim006_stimuli_original_animals_fish_2.png	T	0	0	0	211.318326500012	211.518321900163
48989.5	100	211	5	0	32	31	12	14	0	0	0	stim013_stimuli_original_vehicles_planes_1.png	V	0	0	0	211.718337200116	211.918339200085
49089.5	100	212	5	0	32	32	13	5	0	0	0	stim014_stimuli_original_vehicles_planes_2.png	F	0	0	0	212.118348200107	212.318346500164
49189.5	100	213	5	0	32	33	1	4	0	0	0	stim002_stimuli_original_animals_birds_2.png	E	0	0	0	212.518357700203	212.718358000042
49289.5	100	214	5	0	32	34	8	6	0	0	0	stim009_stimuli_original_vehicles_boats_1.png	G	0	0	0	212.918369800085	213.118368100142
49389.5	100	215	5	0	32	35	0	8	0	0	0	stim001_stimuli_original_animals_birds_1.png	K	0	0	0	213.318387300009	213.518377600005
54056.25	100	216	6	1	20	0	3	7	0	0	0	stim004_stimuli_original_animals_birds_4.png	J	0	0	0	231.98555050022	232.185560500016
54156.25	100	217	6	1	20	1	14	5	0	0	0	stim015_stimuli_original_vehicles_planes_3.png	F	0	0	0	232.385558300186	232.585557400016
54256.25	100	218	6	1	20	2	6	2	0	0	0	stim007_stimuli_original_animals_fish_3.png	C	0	0	0	232.785586200189	232.985567700118
54356.25	100	219	6	1	20	3	7	15	0	0	0	stim008_stimuli_original_animals_fish_4.png	Y	0	0	0	233.185581300175	233.385580700124
54456.25	100	220	6	1	20	4	1	9	0	0	0	stim002_stimuli_original_animals_birds_2.png	L	0	0	0	233.585590800038	233.785592200002
54556.25	100	221	6	1	20	5	2	7	0	1	0	stim003_stimuli_original_animals_birds_3.png	J	0	0	0	233.985602800036	234.185601400211
54656.25	100	222	6	1	20	6	10	3	0	0	0	stim011_stimuli_original_vehicles_boats_3.png	D	0	0	0	234.385612700135	234.585617400007
54756.25	100	223	6	1	20	7	7	7	1	1	1	stim008_stimuli_original_animals_fish_4.png	J	0	0	0	234.785633600084	234.985625000205
54856.25	100	224	6	1	20	8	12	10	0	0	0	stim013_stimuli_original_vehicles_planes_1.png	Q	0	0	0	235.185639200034	235.385640900116
54956.25	100	225	6	1	20	9	7	12	1	0	0	stim008_stimuli_original_animals_fish_4.png	T	0	0	0	235.585645300103	235.785643700045
55056.25	100	226	6	1	20	10	4	8	0	0	0	stim005_stimuli_original_animals_fish_1.png	K	0	0	0	235.985654600197	236.185654500034
55156.25	100	227	6	1	20	11	13	0	0	0	0	stim014_stimuli_original_vehicles_planes_2.png	A	0	0	0	236.385669400217	236.585666900035
55256.25	100	228	6	1	20	12	9	1	0	0	0	stim010_stimuli_original_vehicles_boats_2.png	B	0	0	0	236.785676600179	236.985706000123
55356.25	100	229	6	1	20	13	11	4	0	0	0	stim012_stimuli_original_vehicles_boats_4.png	E	0	0	0	237.185694000218	237.385688500013
55456.25	100	230	6	1	20	14	0	6	0	0	0	stim001_stimuli_original_animals_birds_1.png	G	0	0	0	237.585717300186	237.785698699998
55556.25	100	231	6	1	20	15	8	13	0	0	0	stim009_stimuli_original_vehicles_boats_1.png	U	0	0	0	237.985711300047	238.185709000099
55656.25	100	232	6	1	20	16	15	11	0	0	0	stim016_stimuli_original_vehicles_planes_4.png	R	0	0	0	238.385726700071	238.585720900213
55756.25	100	233	6	1	20	17	5	14	0	0	0	stim006_stimuli_original_animals_fish_2.png	V	0	0	0	238.785730200121	238.985730400076
55856.25	100	234	6	1	20	18	14	5	0	0	0	stim015_stimuli_original_vehicles_planes_3.png	F	0	0	0	239.185741699999	239.385740400059
55956.25	100	235	6	1	20	19	11	15	0	0	0	stim012_stimuli_original_vehicles_boats_4.png	Y	0	0	0	239.585792000173	239.785752000054
56056.25	100	236	6	1	20	20	13	8	0	0	0	stim014_stimuli_original_vehicles_planes_2.png	K	0	0	0	239.985763600096	240.185776000144
56156.25	100	237	6	1	20	21	6	0	0	0	0	stim007_stimuli_original_animals_fish_3.png	A	0	0	0	240.385773400078	240.585772200022
56256.25	100	238	6	1	20	22	4	11	0	0	0	stim005_stimuli_original_animals_fish_1.png	R	0	0	0	240.785783700179	240.985783200013
56356.25	100	239	6	1	20	23	1	9	0	0	0	stim002_stimuli_original_animals_birds_2.png	L	0	0	0	241.185795300175	241.385794200003
56456.25	100	240	6	1	20	24	0	13	0	0	0	stim001_stimuli_original_animals_birds_1.png	U	0	0	0	241.585806200048	241.785809000023
56556.25	100	241	6	1	20	25	8	4	0	0	0	stim009_stimuli_original_vehicles_boats_1.png	E	0	0	0	241.985819200054	242.185829600086
56656.25	100	242	6	1	20	26	12	7	0	1	0	stim013_stimuli_original_vehicles_planes_1.png	J	0	0	0	242.385832900181	242.585831600009
56756.25	100	243	6	1	20	27	10	12	0	0	0	stim011_stimuli_original_vehicles_boats_3.png	T	0	0	0	242.785851699999	242.985836500069
56856.25	100	244	6	1	20	28	7	7	1	1	1	stim008_stimuli_original_animals_fish_4.png	J	0	0	0	243.185847700108	243.385852500098
56956.25	100	245	6	1	20	29	3	10	0	0	0	stim004_stimuli_original_animals_birds_4.png	Q	0	0	0	243.585873900214	243.785860300064
57056.25	100	246	6	1	20	30	7	2	1	0	0	stim008_stimuli_original_animals_fish_4.png	C	0	0	0	243.98587160022	244.185869400157
57156.25	100	247	6	1	20	31	9	1	0	0	0	stim010_stimuli_original_vehicles_boats_2.png	B	f	244.37844700017	1	244.385925000068	244.585884300061
57256.25	100	248	6	1	20	32	15	7	0	0	0	stim016_stimuli_original_vehicles_planes_4.png	J	0	0	0	244.785895200213	244.98589250003
57356.25	100	249	6	1	20	33	2	6	0	0	0	stim003_stimuli_original_animals_birds_3.png	G	0	0	0	245.185902400175	245.385908100056
57456.25	100	250	6	1	20	34	5	14	0	0	0	stim006_stimuli_original_animals_fish_2.png	V	0	0	0	245.585915000178	245.785911400104
57556.25	100	251	6	1	20	35	7	3	0	0	0	stim008_stimuli_original_animals_fish_4.png	D	0	0	0	245.985924600158	246.185922700213
59939.75	100	252	7	0	26	0	1	1	0	0	0	stim002_stimuli_original_animals_birds_2.png	B	0	0	0	255.519516400062	255.719515100121
60039.75	100	253	7	0	26	1	15	9	0	0	0	stim016_stimuli_original_vehicles_planes_4.png	L	0	0	0	255.919527000049	256.119529500138
60139.75	100	254	7	0	26	2	9	12	0	0	0	stim010_stimuli_original_vehicles_boats_2.png	T	0	0	0	256.319537900155	256.519532800186
60239.75	100	255	7	0	26	3	13	0	0	0	0	stim014_stimuli_original_vehicles_planes_2.png	A	0	0	0	256.71954760002	256.919549200218
60339.75	100	256	7	0	26	4	10	3	0	0	0	stim011_stimuli_original_vehicles_boats_3.png	D	0	0	0	257.119562500156	257.319558800198
60439.75	100	257	7	0	26	5	5	11	0	0	0	stim006_stimuli_original_animals_fish_2.png	R	0	0	0	257.5195652002	257.719567500055
60539.75	100	258	7	0	26	6	7	4	0	0	0	stim008_stimuli_original_animals_fish_4.png	E	0	0	0	257.919577900087	258.119582900079
60639.75	100	259	7	0	26	7	13	8	1	0	0	stim014_stimuli_original_vehicles_planes_2.png	K	0	0	0	258.319613300031	258.51958610001
60739.75	100	260	7	0	26	8	12	5	0	0	0	stim013_stimuli_original_vehicles_planes_1.png	F	0	0	0	258.71960010007	258.919601600152
60839.75	100	261	7	0	26	9	13	2	1	0	1	stim014_stimuli_original_vehicles_planes_2.png	C	0	0	0	259.119618600002	259.319610600127
60939.75	100	262	7	0	26	10	8	6	0	0	0	stim009_stimuli_original_vehicles_boats_1.png	G	0	0	0	259.519619000144	259.719623900019
61039.75	100	263	7	0	26	11	11	12	0	1	0	stim012_stimuli_original_vehicles_boats_4.png	T	f	260.111428400036	1	259.919631200144	260.119637500029
61139.75	100	264	7	0	26	12	14	7	0	0	0	stim015_stimuli_original_vehicles_planes_3.png	J	0	0	0	260.319644800154	260.519637600053
61239.75	100	265	7	0	26	13	3	12	0	1	0	stim004_stimuli_original_animals_birds_4.png	T	0	0	0	260.719656500034	260.919654100202
61339.75	100	266	7	0	26	14	0	14	0	0	0	stim001_stimuli_original_animals_birds_1.png	V	0	0	0	261.119679900119	261.319678700063
61439.75	100	267	7	0	26	15	4	10	0	0	0	stim005_stimuli_original_animals_fish_1.png	Q	0	0	0	261.519685400184	261.719684500014
61539.75	100	268	7	0	26	16	2	15	0	0	0	stim003_stimuli_original_animals_birds_3.png	Y	0	0	0	261.919697500067	262.119703800185
61639.75	100	269	7	0	26	17	6	13	0	0	0	stim007_stimuli_original_animals_fish_3.png	U	0	0	0	262.319706700044	262.519707500003
61739.75	100	270	7	0	26	18	13	6	0	0	0	stim014_stimuli_original_vehicles_planes_2.png	G	0	0	0	262.719719500048	262.919711900176
61839.75	100	271	7	0	26	19	15	2	0	0	0	stim016_stimuli_original_vehicles_planes_4.png	C	0	0	0	263.119728000136	263.319719400024
61939.75	100	272	7	0	26	20	10	4	0	0	0	stim011_stimuli_original_vehicles_boats_3.png	E	0	0	0	263.519730500178	263.719752600184
62039.75	100	273	7	0	26	21	14	0	0	0	0	stim015_stimuli_original_vehicles_planes_3.png	A	0	0	0	263.91975160013	264.119757700013
62139.75	100	274	7	0	26	22	12	3	1	0	0	stim013_stimuli_original_vehicles_planes_1.png	D	0	0	0	264.319761600113	264.519759400049
62239.75	100	275	7	0	26	23	7	14	0	0	0	stim008_stimuli_original_animals_fish_4.png	V	0	0	0	264.719775200123	264.919775200076
62339.75	100	276	7	0	26	24	12	11	1	0	1	stim013_stimuli_original_vehicles_planes_1.png	R	0	0	0	265.119789000135	265.319781800034
62439.75	100	277	7	0	26	25	6	8	0	0	0	stim007_stimuli_original_animals_fish_3.png	K	0	0	0	265.519792100182	265.719792800024
62539.75	100	278	7	0	26	26	2	13	0	1	0	stim003_stimuli_original_animals_birds_3.png	U	f	265.912392300088	1	265.919804700185	266.119812600082
62639.75	100	279	7	0	26	27	5	12	0	0	0	stim006_stimuli_original_animals_fish_2.png	T	0	0	0	266.319816800067	266.519811800215
62739.75	100	280	7	0	26	28	8	13	0	1	0	stim009_stimuli_original_vehicles_boats_1.png	U	0	0	0	266.71982590016	266.919830000028
62839.75	100	281	7	0	26	29	4	7	0	0	0	stim005_stimuli_original_animals_fish_1.png	J	0	0	0	267.119844600093	267.319835700095
62939.75	100	282	7	0	26	30	11	5	0	0	0	stim012_stimuli_original_vehicles_boats_4.png	F	0	0	0	267.519845200004	267.719847700093
63039.75	100	283	7	0	26	31	3	10	0	0	0	stim004_stimuli_original_animals_birds_4.png	Q	0	0	0	267.919859700138	268.119860600214
63139.75	100	284	7	0	26	32	0	13	0	0	0	stim001_stimuli_original_animals_birds_1.png	U	0	0	0	268.319868200226	268.519869000185
63239.75	100	285	7	0	26	33	12	9	0	0	0	stim013_stimuli_original_vehicles_planes_1.png	L	0	0	0	268.719880999997	268.919881400187
63339.75	100	286	7	0	26	34	9	15	0	0	0	stim010_stimuli_original_vehicles_boats_2.png	Y	0	0	0	269.119893100113	269.31989140017
63439.75	100	287	7	0	26	35	1	1	0	0	0	stim002_stimuli_original_animals_birds_2.png	B	0	0	0	269.519900000188	269.719898800133
64965	100	288	8	1	46	0	14	4	0	0	0	stim015_stimuli_original_vehicles_planes_3.png	E	0	0	0	275.62006620015	275.820069300011
65065	100	289	8	1	46	1	4	7	0	0	0	stim005_stimuli_original_animals_fish_1.png	J	0	0	0	276.020064100157	276.220069500152
65165	100	290	8	1	46	2	6	9	0	0	0	stim007_stimuli_original_animals_fish_3.png	L	0	0	0	276.420073700137	276.620077600004
65265	100	291	8	1	46	3	2	8	0	0	0	stim003_stimuli_original_animals_birds_3.png	K	0	0	0	276.820086500142	277.020087400218
65365	100	292	8	1	46	4	7	13	0	0	0	stim008_stimuli_original_animals_fish_4.png	U	0	0	0	277.220096600009	277.420097000198
65465	100	293	8	1	46	5	0	1	0	0	0	stim001_stimuli_original_animals_birds_1.png	B	0	0	0	277.620106300106	277.82012300007
65565	100	294	8	1	46	6	13	6	0	0	0	stim014_stimuli_original_vehicles_planes_2.png	G	0	0	0	278.020116000203	278.220116300043
65665	100	295	8	1	46	7	4	2	1	0	0	stim005_stimuli_original_animals_fish_1.png	C	0	0	0	278.420141100185	278.620128200157
65765	100	296	8	1	46	8	10	14	0	0	0	stim011_stimuli_original_vehicles_boats_3.png	V	0	0	0	278.820139300078	279.020138500025
65865	100	297	8	1	46	9	4	5	1	0	0	stim005_stimuli_original_animals_fish_1.png	F	0	0	0	279.220150800189	279.420148300007
65965	100	298	8	1	46	10	3	13	0	1	0	stim004_stimuli_original_animals_birds_4.png	U	0	0	0	279.620165500091	279.820161200128
66065	100	299	8	1	46	11	11	3	0	0	0	stim012_stimuli_original_vehicles_boats_4.png	D	0	0	0	280.020192700205	280.220170800108
66165	100	300	8	1	46	12	12	13	0	1	1	stim013_stimuli_original_vehicles_planes_1.png	U	0	0	0	280.420193400001	280.620182400104
66265	100	301	8	1	46	13	5	15	0	0	0	stim006_stimuli_original_animals_fish_2.png	Y	0	0	0	280.82019410003	281.020196200116
66365	100	302	8	1	46	14	1	10	0	0	0	stim002_stimuli_original_animals_birds_2.png	Q	0	0	0	281.220203800127	281.420204600086
66465	100	303	8	1	46	15	8	12	0	0	0	stim009_stimuli_original_vehicles_boats_1.png	T	0	0	0	281.620217400137	281.820213700179
66565	100	304	8	1	46	16	15	11	0	0	0	stim016_stimuli_original_vehicles_planes_4.png	R	0	0	0	282.020228900015	282.22022470017
66665	100	305	8	1	46	17	9	0	0	0	0	stim010_stimuli_original_vehicles_boats_2.png	A	0	0	0	282.420236300211	282.62026440003
66765	100	306	8	1	46	18	0	9	0	0	0	stim001_stimuli_original_animals_birds_1.png	L	0	0	0	282.820247100201	283.020245800028
66865	100	307	8	1	46	19	11	15	0	0	0	stim012_stimuli_original_vehicles_boats_4.png	Y	0	0	0	283.220298000146	283.420263500186
66965	100	308	8	1	46	20	12	8	0	0	0	stim013_stimuli_original_vehicles_planes_1.png	K	0	0	0	283.620268600062	283.820269800024
67065	100	309	8	1	46	21	10	1	0	0	0	stim011_stimuli_original_vehicles_boats_3.png	B	0	0	0	284.020277600037	284.220279900124
67165	100	310	8	1	46	22	15	5	0	0	0	stim016_stimuli_original_vehicles_planes_4.png	F	0	0	0	284.420291000046	284.620292100124
67265	100	311	8	1	46	23	13	12	1	0	0	stim014_stimuli_original_vehicles_planes_2.png	T	0	0	0	284.82030120003	285.020298300078
67365	100	312	8	1	46	24	3	11	0	0	0	stim004_stimuli_original_animals_birds_4.png	R	0	0	0	285.220331500052	285.420312000206
67465	100	313	8	1	46	25	13	3	1	0	0	stim014_stimuli_original_vehicles_planes_2.png	D	0	0	0	285.620323700132	285.82033300004
67565	100	314	8	1	46	26	5	4	0	1	0	stim006_stimuli_original_animals_fish_2.png	E	0	0	0	286.020336600021	286.220342800021
67665	100	315	8	1	46	27	14	10	0	0	0	stim015_stimuli_original_vehicles_planes_3.png	Q	0	0	0	286.420345799997	286.620343200164
67765	100	316	8	1	46	28	2	4	0	1	1	stim003_stimuli_original_animals_birds_3.png	E	0	0	0	286.820356600219	287.020356400171
67865	100	317	8	1	46	29	6	13	0	0	0	stim007_stimuli_original_animals_fish_3.png	U	0	0	0	287.220364200184	287.420365500031
67965	100	318	8	1	46	30	1	0	0	0	0	stim002_stimuli_original_animals_birds_2.png	A	0	0	0	287.62037460017	287.820387000218
68065	100	319	8	1	46	31	13	7	0	0	0	stim014_stimuli_original_vehicles_planes_2.png	J	0	0	0	288.020385900047	288.220387400128
68165	100	320	8	1	46	32	8	2	0	0	0	stim009_stimuli_original_vehicles_boats_1.png	C	0	0	0	288.420410400024	288.620398300001
68265	100	321	8	1	46	33	9	6	0	0	0	stim010_stimuli_original_vehicles_boats_2.png	G	0	0	0	288.820409300039	289.020407100208
68365	100	322	8	1	46	34	7	4	0	0	0	stim008_stimuli_original_animals_fish_4.png	E	0	0	0	289.220418300014	289.4204183002
68465	100	323	8	1	46	35	4	14	0	0	0	stim005_stimuli_original_animals_fish_1.png	V	0	0	0	289.620429500006	289.820429500192
70798.25	100	324	9	0	11	0	15	7	0	0	0	stim016_stimuli_original_vehicles_planes_4.png	J	0	0	0	298.954052300192	299.154053500155
70898.25	100	325	9	0	11	1	0	0	0	0	0	stim001_stimuli_original_animals_birds_1.png	A	0	0	0	299.354046700057	299.554049200146
70998.25	100	326	9	0	11	2	14	8	0	0	0	stim015_stimuli_original_vehicles_planes_3.png	K	0	0	0	299.754062000196	299.954063500045
71098.25	100	327	9	0	11	3	5	13	0	0	0	stim006_stimuli_original_animals_fish_2.png	U	0	0	0	300.154071000172	300.354073700029
71198.25	100	328	9	0	11	4	9	14	0	0	0	stim010_stimuli_original_vehicles_boats_2.png	V	0	0	0	300.55408250005	300.754084000131
71298.25	100	329	9	0	11	5	7	4	0	0	0	stim008_stimuli_original_animals_fish_4.png	E	0	0	0	300.954092400149	301.154069300042
71398.25	100	330	9	0	11	6	12	11	0	0	0	stim013_stimuli_original_vehicles_planes_1.png	R	0	0	0	301.354102100013	301.554117900087
71498.25	100	331	9	0	11	7	10	1	0	0	0	stim011_stimuli_original_vehicles_boats_3.png	B	0	0	0	301.754106000066	301.954116300214
71598.25	100	332	9	0	11	8	3	9	0	0	0	stim004_stimuli_original_animals_birds_4.png	L	0	0	0	302.154128100025	302.354128400097
71698.25	100	333	9	0	11	9	13	2	0	0	0	stim014_stimuli_original_vehicles_planes_2.png	C	0	0	0	302.554136100225	302.754139900208
71798.25	100	334	9	0	11	10	8	3	1	0	0	stim009_stimuli_original_vehicles_boats_1.png	D	0	0	0	302.954145400086	303.154146300163
71898.5	100	335	9	0	11	11	4	6	0	0	0	stim005_stimuli_original_animals_fish_1.png	G	0	0	0	303.354162800126	303.554162800079
71998.5	100	336	9	0	11	12	8	14	1	1	1	stim009_stimuli_original_vehicles_boats_1.png	V	0	0	0	303.754204200115	303.954168300144
72098.5	100	337	9	0	11	13	2	10	0	0	0	stim003_stimuli_original_animals_birds_3.png	Q	0	0	0	304.154180100188	304.354180200025
72198.5	100	338	9	0	11	14	6	14	0	1	0	stim007_stimuli_original_animals_fish_3.png	V	0	0	0	304.554191600066	304.754191200016
72298.5	100	339	9	0	11	15	1	15	0	0	0	stim002_stimuli_original_animals_birds_2.png	Y	0	0	0	304.954180200119	305.154204400023
72398.5	100	340	9	0	11	16	8	12	0	0	0	stim009_stimuli_original_vehicles_boats_1.png	T	0	0	0	305.354217000073	305.554211700102
72498.5	100	341	9	0	11	17	11	5	0	0	0	stim012_stimuli_original_vehicles_boats_4.png	F	0	0	0	305.754228400066	305.954223400215
72598.5	100	342	9	0	11	18	5	11	0	0	0	stim006_stimuli_original_animals_fish_2.png	R	0	0	0	306.154238600051	306.354236000217
72698.5	100	343	9	0	11	19	12	8	0	0	0	stim013_stimuli_original_vehicles_planes_1.png	K	0	0	0	306.554243000224	306.754247400211
72798.5	100	344	9	0	11	20	15	1	0	0	0	stim016_stimuli_original_vehicles_planes_4.png	B	0	0	0	306.954240400111	307.154253000161
72898.5	100	345	9	0	11	21	14	6	1	0	0	stim015_stimuli_original_vehicles_planes_3.png	G	0	0	0	307.354270100128	307.554266200168
72998.5	100	346	9	0	11	22	10	2	0	0	0	stim011_stimuli_original_vehicles_boats_3.png	C	0	0	0	307.754276600201	307.954277700046
73098.5	100	347	9	0	11	23	14	8	1	1	1	stim015_stimuli_original_vehicles_planes_3.png	K	0	0	0	308.154288600199	308.354289800161
73198.5	100	348	9	0	11	24	6	4	0	0	0	stim007_stimuli_original_animals_fish_3.png	E	0	0	0	308.554302000208	308.754299500026
73298.5	100	349	9	0	11	25	3	8	0	1	0	stim004_stimuli_original_animals_birds_4.png	K	0	0	0	308.954308700049	309.154308200115
73398.5	100	350	9	0	11	26	2	13	0	0	0	stim003_stimuli_original_animals_birds_3.png	U	f	309.346874600044	1	309.35432230006	309.554320400115
73498.5	100	351	9	0	11	27	9	3	0	0	0	stim010_stimuli_original_vehicles_boats_2.png	D	0	0	0	309.754331800155	309.954331200104
73598.5	100	352	9	0	11	28	1	10	0	0	0	stim002_stimuli_original_animals_birds_2.png	Q	0	0	0	310.154328400036	310.354341500206
73698.5	100	353	9	0	11	29	11	12	0	0	0	stim012_stimuli_original_vehicles_boats_4.png	T	0	0	0	310.554360000184	310.754354700213
73798.5	100	354	9	0	11	30	4	7	0	0	0	stim005_stimuli_original_animals_fish_1.png	J	0	0	0	310.954363900004	311.154363100184
73898.5	100	355	9	0	11	31	14	9	0	0	0	stim015_stimuli_original_vehicles_planes_3.png	L	0	0	0	311.354374899995	311.554375900188
73998.5	100	356	9	0	11	32	13	5	0	0	0	stim014_stimuli_original_vehicles_planes_2.png	F	0	0	0	311.754370000213	311.954386300175
74098.5	100	357	9	0	11	33	8	14	0	0	0	stim009_stimuli_original_vehicles_boats_1.png	V	0	0	0	312.15439260006	312.354396700161
74198.5	100	358	9	0	11	34	0	0	0	0	0	stim001_stimuli_original_animals_birds_1.png	A	0	0	0	312.554404700175	312.754410700174
74298.5	100	359	9	0	11	35	7	15	0	0	0	stim008_stimuli_original_animals_fish_4.png	Y	0	0	0	312.954419700196	313.154415500117
76069.25	100	360	10	1	44	0	7	13	0	0	0	stim008_stimuli_original_animals_fish_4.png	U	0	0	0	320.037917500129	320.237956800032
76169.25	100	361	10	1	44	1	11	8	0	0	0	stim012_stimuli_original_vehicles_boats_4.png	K	0	0	0	320.437923600199	320.637929200195
76269.25	100	362	10	1	44	2	4	1	0	0	0	stim005_stimuli_original_animals_fish_1.png	B	0	0	0	320.837936700089	321.037936000153
76369.25	100	363	10	1	44	3	8	9	0	0	0	stim009_stimuli_original_vehicles_boats_1.png	L	0	0	0	321.237949300092	321.437942800112
76469.25	100	364	10	1	44	4	0	11	1	0	0	stim001_stimuli_original_animals_birds_1.png	R	0	0	0	321.637953800149	321.8379534001
76569.25	100	365	10	1	44	5	2	14	0	0	0	stim003_stimuli_original_animals_birds_3.png	V	0	0	0	322.037966500036	322.237966300221
76669.25	100	366	10	1	44	6	0	6	1	0	0	stim001_stimuli_original_animals_birds_1.png	G	0	0	0	322.437977200141	322.637974600075
76769.25	100	367	10	1	44	7	6	9	0	1	0	stim007_stimuli_original_animals_fish_3.png	L	0	0	0	322.838016900001	323.03798880009
76869.25	100	368	10	1	44	8	9	15	0	0	0	stim010_stimuli_original_vehicles_boats_2.png	Y	0	0	0	323.238002700033	323.438040600158
76969.25	100	369	10	1	44	9	3	9	0	1	1	stim004_stimuli_original_animals_birds_4.png	L	0	0	0	323.638010900002	323.838035700144
77069.25	100	370	10	1	44	10	15	5	0	0	0	stim016_stimuli_original_vehicles_planes_4.png	F	0	0	0	324.03804080002	324.238031800138
77169.25	100	371	10	1	44	11	14	12	0	0	0	stim015_stimuli_original_vehicles_planes_3.png	T	0	0	0	324.438044000184	324.638043400133
77269.25	100	372	10	1	44	12	10	3	0	0	0	stim011_stimuli_original_vehicles_boats_3.png	D	0	0	0	324.838055200176	325.038056300022
77369.25	100	373	10	1	44	13	0	7	0	0	0	stim001_stimuli_original_animals_birds_1.png	J	0	0	0	325.238065000158	325.438081200002
77469.25	100	374	10	1	44	14	12	10	0	0	0	stim013_stimuli_original_vehicles_planes_1.png	Q	0	0	0	325.638074700022	325.838076900225
77569.25	100	375	10	1	44	15	5	4	0	0	0	stim006_stimuli_original_animals_fish_2.png	E	0	0	0	326.038101800019	326.238085700199
77669.25	100	376	10	1	44	16	13	0	0	0	0	stim014_stimuli_original_vehicles_planes_2.png	A	0	0	0	326.438096200116	326.638098500203
77769.25	100	377	10	1	44	17	1	2	0	0	0	stim002_stimuli_original_animals_birds_2.png	C	f	326.830718200188	0	326.838108200114	327.038114600116
77869.25	100	378	10	1	44	18	2	1	0	0	0	stim003_stimuli_original_animals_birds_3.png	B	0	0	0	327.238120200112	327.438117800048
77969.25	100	379	10	1	44	19	0	13	0	0	0	stim001_stimuli_original_animals_birds_1.png	U	0	0	0	327.638132299995	327.838129400043
78069.25	100	380	10	1	44	20	4	5	0	0	0	stim005_stimuli_original_animals_fish_1.png	F	0	0	0	328.038155400194	328.238144800067
78169.25	100	381	10	1	44	21	10	12	0	0	0	stim011_stimuli_original_vehicles_boats_3.png	T	0	0	0	328.438150200062	328.638150900137
78269.25	100	382	10	1	44	22	7	0	0	0	0	stim008_stimuli_original_animals_fish_4.png	A	0	0	0	328.838161500171	329.038164300146
78369.25	100	383	10	1	44	23	3	10	0	0	0	stim004_stimuli_original_animals_birds_4.png	Q	0	0	0	329.238172900164	329.438175600022
78469.25	100	384	10	1	44	24	12	14	0	0	0	stim013_stimuli_original_vehicles_planes_1.png	V	0	0	0	329.638185200049	329.838184399996
78569.25	100	385	10	1	44	25	5	15	0	0	0	stim006_stimuli_original_animals_fish_2.png	Y	0	0	0	330.038193800021	330.238208200084
78669.25	100	386	10	1	44	26	9	3	1	0	0	stim010_stimuli_original_vehicles_boats_2.png	D	0	0	0	330.438204000005	330.638217300177
78769.5	100	387	10	1	44	27	15	9	0	0	0	stim016_stimuli_original_vehicles_planes_4.png	L	0	0	0	330.838232000126	331.038215000182
78869.5	100	388	10	1	44	28	9	6	1	0	0	stim010_stimuli_original_vehicles_boats_2.png	G	0	0	0	331.23822900001	331.438224800164
78969.5	100	389	10	1	44	29	6	0	0	1	0	stim007_stimuli_original_animals_fish_3.png	A	0	0	0	331.638243300142	331.838239500066
79069.5	100	390	10	1	44	30	14	2	0	0	0	stim015_stimuli_original_vehicles_planes_3.png	C	0	0	0	332.038248500088	332.238247500034
79169.5	100	391	10	1	44	31	11	0	0	1	1	stim012_stimuli_original_vehicles_boats_4.png	A	0	0	0	332.438259900082	332.638258200139
79269.5	100	392	10	1	44	32	9	8	0	0	0	stim010_stimuli_original_vehicles_boats_2.png	K	0	0	0	332.838300500065	333.038268500008
79369.5	100	393	10	1	44	33	1	4	0	0	0	stim002_stimuli_original_animals_birds_2.png	E	0	0	0	333.23828060017	333.438291200204
79469.5	100	394	10	1	44	34	8	11	0	0	0	stim009_stimuli_original_vehicles_boats_1.png	R	0	0	0	333.638291900046	333.838293000124
79569.5	100	395	10	1	44	35	13	7	0	0	0	stim014_stimuli_original_vehicles_planes_2.png	J	0	0	0	334.038302700035	334.238304900005
81640.25	100	396	11	0	35	0	10	6	0	0	0	stim011_stimuli_original_vehicles_boats_3.png	G	0	0	0	342.321879300056	342.521882000146
81740.25	100	397	11	0	35	1	1	8	0	0	0	stim002_stimuli_original_animals_birds_2.png	K	0	0	0	342.721889300039	342.921891200123
81840.25	100	398	11	0	35	2	5	15	0	0	0	stim006_stimuli_original_animals_fish_2.png	Y	0	0	0	343.121900200145	343.321899300208
81940.25	100	399	11	0	35	3	14	9	0	0	0	stim015_stimuli_original_vehicles_planes_3.png	L	0	0	0	343.521912700031	343.721912000095
82040.25	100	400	11	0	35	4	3	0	1	0	0	stim004_stimuli_original_animals_birds_4.png	A	0	0	0	343.921920600114	344.121909100097
82140.25	100	401	11	0	35	5	12	2	0	0	0	stim013_stimuli_original_vehicles_planes_1.png	C	0	0	0	344.321932400111	344.521935200086
82240.25	100	402	11	0	35	6	3	12	1	0	1	stim004_stimuli_original_animals_birds_4.png	T	0	0	0	344.721941500204	344.921939600026
82340.25	100	403	11	0	35	7	13	7	0	0	0	stim014_stimuli_original_vehicles_planes_2.png	J	0	0	0	345.121955500217	345.321954400046
82440.25	100	404	11	0	35	8	15	3	0	0	0	stim016_stimuli_original_vehicles_planes_4.png	D	f	345.514589100145	1	345.521962000057	345.721962500131
82540.25	100	405	11	0	35	9	8	1	0	0	0	stim009_stimuli_original_vehicles_boats_1.png	B	0	0	0	345.921976600075	346.121982300188
82640.25	100	406	11	0	35	10	6	11	0	0	0	stim007_stimuli_original_animals_fish_3.png	R	0	0	0	346.321983600035	346.521983500104
82740.25	100	407	11	0	35	11	0	4	0	0	0	stim001_stimuli_original_animals_birds_1.png	E	0	0	0	346.721981900046	346.922014700016
82840.25	100	408	11	0	35	12	4	3	0	1	0	stim005_stimuli_original_animals_fish_1.png	D	0	0	0	347.122000900097	347.322003000183
82940.25	100	409	11	0	35	13	7	14	0	0	0	stim008_stimuli_original_animals_fish_4.png	V	0	0	0	347.522020400036	347.722013000166
83040.25	100	410	11	0	35	14	2	3	0	1	0	stim003_stimuli_original_animals_birds_3.png	D	0	0	0	347.922024400206	348.122026000172
83140.25	100	411	11	0	35	15	3	13	0	0	0	stim004_stimuli_original_animals_birds_4.png	U	0	0	0	348.322030200157	348.52203490003
83240.25	100	412	11	0	35	16	9	10	0	0	0	stim010_stimuli_original_vehicles_boats_2.png	Q	0	0	0	348.722050700104	348.922042200109
83340.25	100	413	11	0	35	17	11	5	0	0	0	stim012_stimuli_original_vehicles_boats_4.png	F	0	0	0	349.122040300164	349.322040800005
83440.25	100	414	11	0	35	18	5	11	0	0	0	stim006_stimuli_original_animals_fish_2.png	R	0	0	0	349.52206720016	349.722071800148
83540.25	100	415	11	0	35	19	10	9	0	0	0	stim011_stimuli_original_vehicles_boats_3.png	L	0	0	0	349.922077400144	350.122082800139
83640.25	100	416	11	0	35	20	13	3	0	0	0	stim014_stimuli_original_vehicles_planes_2.png	D	0	0	0	350.322092700051	350.522089300212
83740.25	100	417	11	0	35	21	3	2	1	0	0	stim004_stimuli_original_animals_birds_4.png	C	0	0	0	350.722098700004	350.922102800105
83840.25	100	418	11	0	35	22	14	7	0	0	0	stim015_stimuli_original_vehicles_planes_3.png	J	0	0	0	351.122107200092	351.322122600162
83940.25	100	419	11	0	35	23	3	4	1	0	1	stim004_stimuli_original_animals_birds_4.png	E	0	0	0	351.522116100183	351.722104200162
84040.25	100	420	11	0	35	24	4	0	0	0	0	stim005_stimuli_original_animals_fish_1.png	A	0	0	0	351.922129100189	352.122141200118
84140.25	100	421	11	0	35	25	11	6	0	0	0	stim012_stimuli_original_vehicles_boats_4.png	G	0	0	0	352.322142000077	352.522141000023
84240.25	100	422	11	0	35	26	1	8	0	0	0	stim002_stimuli_original_animals_birds_2.png	K	0	0	0	352.722153900191	352.922135500005
84340.25	100	423	11	0	35	27	3	15	0	0	0	stim004_stimuli_original_animals_birds_4.png	Y	0	0	0	353.122162200045	353.322162800003
84440.25	100	424	11	0	35	28	7	13	0	0	0	stim008_stimuli_original_animals_fish_4.png	U	0	0	0	353.522196200211	353.722158600111
84540.25	100	425	11	0	35	29	12	3	0	1	0	stim013_stimuli_original_vehicles_planes_1.png	D	0	0	0	353.922170500038	354.122176500037
84640.25	100	426	11	0	35	30	2	12	0	0	0	stim003_stimuli_original_animals_birds_3.png	T	0	0	0	354.32219870016	354.522197300103
84740.25	100	427	11	0	35	31	0	3	0	1	0	stim001_stimuli_original_animals_birds_1.png	D	0	0	0	354.722205800004	354.922208000207
84840.25	100	428	11	0	35	32	9	14	0	0	0	stim010_stimuli_original_vehicles_boats_2.png	V	0	0	0	355.122217600001	355.322214600164
84940.25	100	429	11	0	35	33	15	5	0	0	0	stim016_stimuli_original_vehicles_planes_4.png	F	0	0	0	355.52222890011	355.722235900117
85040.25	100	430	11	0	35	34	8	1	0	0	0	stim009_stimuli_original_vehicles_boats_1.png	B	0	0	0	355.922238800209	356.122225800063
85140.25	100	431	11	0	35	35	6	10	0	0	0	stim007_stimuli_original_animals_fish_3.png	Q	0	0	0	356.322250400204	356.522250400158
87594.5	100	432	12	1	26	0	1	1	0	0	0	stim002_stimuli_original_animals_birds_2.png	B	0	0	0	366.139154900098	366.339160600211
87694.5	100	433	12	1	26	1	15	9	0	0	0	stim016_stimuli_original_vehicles_planes_4.png	L	0	0	0	366.539170600008	366.739165300038
87794.5	100	434	12	1	26	2	9	12	0	0	0	stim010_stimuli_original_vehicles_boats_2.png	T	0	0	0	366.939173600171	367.139174900018
87894.5	100	435	12	1	26	3	13	0	0	0	0	stim014_stimuli_original_vehicles_planes_2.png	A	0	0	0	367.339190100087	367.539188400144
87994.5	100	436	12	1	26	4	10	3	0	0	0	stim011_stimuli_original_vehicles_boats_3.png	D	0	0	0	367.739195600152	367.939195400104
88094.5	100	437	12	1	26	5	5	11	0	0	0	stim006_stimuli_original_animals_fish_2.png	R	0	0	0	368.139207300032	368.339207800105
88194.5	100	438	12	1	26	6	7	4	0	0	0	stim008_stimuli_original_animals_fish_4.png	E	0	0	0	368.539215099998	368.739215700189
88294.5	100	439	12	1	26	7	13	8	1	0	0	stim014_stimuli_original_vehicles_planes_2.png	K	0	0	0	368.939226000104	369.139224200044
88394.5	100	440	12	1	26	8	12	5	0	0	0	stim013_stimuli_original_vehicles_planes_1.png	F	0	0	0	369.339240000118	369.539234300144
88494.5	100	441	12	1	26	9	13	2	1	0	0	stim014_stimuli_original_vehicles_planes_2.png	C	0	0	0	369.739248900209	369.939246400027
88594.5	100	442	12	1	26	10	8	6	0	0	0	stim009_stimuli_original_vehicles_boats_1.png	G	0	0	0	370.139258900192	370.339261900168
88694.5	100	443	12	1	26	11	11	12	0	1	0	stim012_stimuli_original_vehicles_boats_4.png	T	0	0	0	370.539269200061	370.739269500133
88794.5	100	444	12	1	26	12	14	7	0	0	0	stim015_stimuli_original_vehicles_planes_3.png	J	0	0	0	370.939280100167	371.139278200222
88894.5	100	445	12	1	26	13	3	12	0	1	1	stim004_stimuli_original_animals_birds_4.png	T	0	0	0	371.339292600052	371.539288600208
88994.5	100	446	12	1	26	14	0	14	0	0	0	stim001_stimuli_original_animals_birds_1.png	V	0	0	0	371.739303300157	371.9392998002
89094.5	100	447	12	1	26	15	4	10	0	0	0	stim005_stimuli_original_animals_fish_1.png	Q	0	0	0	372.139312600018	372.339316500118
89194.75	100	448	12	1	26	16	2	15	0	0	0	stim003_stimuli_original_animals_birds_3.png	Y	0	0	0	372.539325800026	372.739322300069
89294.75	100	449	12	1	26	17	6	13	0	0	0	stim007_stimuli_original_animals_fish_3.png	U	0	0	0	372.939331200207	373.139332100051
89394.75	100	450	12	1	26	18	13	6	0	0	0	stim014_stimuli_original_vehicles_planes_2.png	G	0	0	0	373.339349000016	373.539344500052
89494.75	100	451	12	1	26	19	15	2	0	0	0	stim016_stimuli_original_vehicles_planes_4.png	C	0	0	0	373.7393548002	373.939354300033
89594.75	100	452	12	1	26	20	10	4	0	0	0	stim011_stimuli_original_vehicles_boats_3.png	E	0	0	0	374.139365700074	374.339363600127
89694.75	100	453	12	1	26	21	14	0	0	0	0	stim015_stimuli_original_vehicles_planes_3.png	A	0	0	0	374.5393792002	374.739374500001
89794.75	100	454	12	1	26	22	12	3	1	0	0	stim013_stimuli_original_vehicles_planes_1.png	D	0	0	0	374.939386000158	375.139385400107
89894.75	100	455	12	1	26	23	7	14	0	0	0	stim008_stimuli_original_animals_fish_4.png	V	0	0	0	375.339402300073	375.539400300011
89994.75	100	456	12	1	26	24	12	11	1	0	0	stim013_stimuli_original_vehicles_planes_1.png	R	0	0	0	375.739410300041	375.939406000078
90094.75	100	457	12	1	26	25	6	8	0	0	0	stim007_stimuli_original_animals_fish_3.png	K	0	0	0	376.139419100014	376.339421300218
90194.75	100	458	12	1	26	26	2	13	0	1	0	stim003_stimuli_original_animals_birds_3.png	U	0	0	0	376.539431400131	376.739431400085
90294.75	100	459	12	1	26	27	5	12	0	0	0	stim006_stimuli_original_animals_fish_2.png	T	0	0	0	376.939440200105	377.139438900165
90394.75	100	460	12	1	26	28	8	13	0	1	1	stim009_stimuli_original_vehicles_boats_1.png	U	0	0	0	377.339454800123	377.539452900179
90494.75	100	461	12	1	26	29	4	7	0	0	0	stim005_stimuli_original_animals_fish_1.png	J	0	0	0	377.739462900208	377.939461000031
90594.75	100	462	12	1	26	30	11	5	0	0	0	stim012_stimuli_original_vehicles_boats_4.png	F	f	378.132040000055	1	378.139473200077	378.339476100169
90694.75	100	463	12	1	26	31	3	10	0	0	0	stim004_stimuli_original_animals_birds_4.png	Q	0	0	0	378.539506200003	378.739482400008
90794.75	100	464	12	1	26	32	0	13	0	0	0	stim001_stimuli_original_animals_birds_1.png	U	0	0	0	378.939493600046	379.139499100158
90894.75	100	465	12	1	26	33	12	9	0	0	0	stim013_stimuli_original_vehicles_planes_1.png	L	0	0	0	379.339506800054	379.539503400214
90994.75	100	466	12	1	26	34	9	15	0	0	0	stim010_stimuli_original_vehicles_boats_2.png	Y	0	0	0	379.739516600035	379.939516200218
91094.75	100	467	12	1	26	35	1	1	0	0	0	stim002_stimuli_original_animals_birds_2.png	B	0	0	0	380.139528600033	380.339530100115
92119.75	100	468	13	0	30	0	7	4	0	0	0	stim008_stimuli_original_animals_fish_4.png	E	0	0	0	384.239677900216	384.439662200166
92219.75	100	469	13	0	30	1	2	11	0	0	0	stim003_stimuli_original_animals_birds_3.png	R	0	0	0	384.639681600034	384.839676200179
92319.75	100	470	13	0	30	2	0	10	0	0	0	stim001_stimuli_original_animals_birds_1.png	Q	0	0	0	385.039694900159	385.239690500079
92419.75	100	471	13	0	30	3	4	2	0	0	0	stim005_stimuli_original_animals_fish_1.png	C	0	0	0	385.439698700095	385.639702800196
92519.75	100	472	13	0	30	4	15	1	0	0	0	stim016_stimuli_original_vehicles_planes_4.png	B	0	0	0	385.8397138	386.039710500045
92619.75	100	473	13	0	30	5	11	8	0	0	0	stim012_stimuli_original_vehicles_boats_4.png	K	0	0	0	386.239721700083	386.439721900038
92719.75	100	474	13	0	30	6	10	9	0	0	0	stim011_stimuli_original_vehicles_boats_3.png	L	0	0	0	386.639709700132	386.839733400149
92819.75	100	475	13	0	30	7	5	13	0	0	0	stim006_stimuli_original_animals_fish_2.png	U	0	0	0	387.039743800182	387.239730800036
92919.75	100	476	13	0	30	8	14	14	0	0	0	stim015_stimuli_original_vehicles_planes_3.png	V	0	0	0	387.439753700048	387.639758500038
93019.75	100	477	13	0	30	9	12	0	0	0	0	stim013_stimuli_original_vehicles_planes_1.png	A	0	0	0	387.839767600177	388.039735600119
93119.75	100	478	13	0	30	10	5	3	1	0	0	stim006_stimuli_original_animals_fish_2.png	D	0	0	0	388.239745900035	388.439744300209
93219.75	100	479	13	0	30	11	6	15	0	0	0	stim007_stimuli_original_animals_fish_3.png	Y	0	0	0	388.639754700009	388.839754300192
93319.75	100	480	13	0	30	12	5	2	1	1	1	stim006_stimuli_original_animals_fish_2.png	C	0	0	0	389.039765499998	389.239781400189
93419.75	100	481	13	0	30	13	1	6	0	0	0	stim002_stimuli_original_animals_birds_2.png	G	0	0	0	389.439780800138	389.639776200056
93519.75	100	482	13	0	30	14	8	2	0	1	0	stim009_stimuli_original_vehicles_boats_1.png	C	0	0	0	389.839801000198	390.039787000045
93619.75	100	483	13	0	30	15	9	5	0	0	0	stim010_stimuli_original_vehicles_boats_2.png	F	f	390.232383000199	1	390.239797800081	390.439801300177
93719.75	100	484	13	0	30	16	13	7	0	0	0	stim014_stimuli_original_vehicles_planes_2.png	J	0	0	0	390.639811100205	390.839811400045
93819.75	100	485	13	0	30	17	3	12	0	0	0	stim004_stimuli_original_animals_birds_4.png	T	0	0	0	391.03982220008	391.239833400119
93919.75	100	486	13	0	30	18	12	3	0	0	0	stim013_stimuli_original_vehicles_planes_1.png	D	0	0	0	391.439856500132	391.639842400094
94019.75	100	487	13	0	30	19	7	13	0	0	0	stim008_stimuli_original_animals_fish_4.png	U	0	0	0	391.839854700025	392.039843200007
94119.75	100	488	13	0	30	20	5	9	0	0	0	stim006_stimuli_original_animals_fish_2.png	L	0	0	0	392.23985270015	392.439853200223
94219.75	100	489	13	0	30	21	2	8	1	0	0	stim003_stimuli_original_animals_birds_3.png	K	0	0	0	392.639863100136	392.839863600209
94319.75	100	490	13	0	30	22	6	1	0	0	0	stim007_stimuli_original_animals_fish_3.png	B	0	0	0	393.039873900125	393.239871300058
94419.75	100	491	13	0	30	23	2	5	1	1	1	stim003_stimuli_original_animals_birds_3.png	F	0	0	0	393.439897600096	393.639883500058
94519.75	100	492	13	0	30	24	15	6	0	0	0	stim016_stimuli_original_vehicles_planes_4.png	G	0	0	0	393.839895300101	394.039922700031
94619.75	100	493	13	0	30	25	3	5	0	1	0	stim004_stimuli_original_animals_birds_4.png	F	0	0	0	394.239907200215	394.43990600016
94719.75	100	494	13	0	30	26	0	12	0	0	0	stim001_stimuli_original_animals_birds_1.png	T	0	0	0	394.639930600068	394.839915300021
94819.75	100	495	13	0	30	27	14	14	0	0	0	stim015_stimuli_original_vehicles_planes_3.png	V	0	0	0	395.039931400213	395.239927300019
94919.75	100	496	13	0	30	28	13	5	0	0	0	stim014_stimuli_original_vehicles_planes_2.png	F	0	0	0	395.439942200202	395.639937500004
95019.75	100	497	13	0	30	29	9	10	0	0	0	stim010_stimuli_original_vehicles_boats_2.png	Q	0	0	0	395.839951500064	396.039950000122
95119.75	100	498	13	0	30	30	8	11	0	0	0	stim009_stimuli_original_vehicles_boats_1.png	R	0	0	0	396.239961200161	396.439959600102
95219.75	100	499	13	0	30	31	1	15	0	0	0	stim002_stimuli_original_animals_birds_2.png	Y	0	0	0	396.639996900223	396.83997070021
95319.75	100	500	13	0	30	32	2	4	0	0	0	stim003_stimuli_original_animals_birds_3.png	E	0	0	0	397.039981900016	397.239987000125
95419.75	100	501	13	0	30	33	10	0	0	0	0	stim011_stimuli_original_vehicles_boats_3.png	A	0	0	0	397.439992000116	397.639997300226
95519.75	100	502	13	0	30	34	11	2	0	0	0	stim012_stimuli_original_vehicles_boats_4.png	C	0	0	0	397.840009600157	398.0400061002
95619.75	100	503	13	0	30	35	4	7	0	0	0	stim005_stimuli_original_animals_fish_1.png	J	0	0	0	398.240015400108	398.440017100191
102486.5	100	504	14	1	43	0	2	7	0	0	0	stim003_stimuli_original_animals_birds_3.png	J	0	0	0	425.707461100072	425.907435200177
102586.5	100	505	14	1	43	1	0	8	0	0	0	stim001_stimuli_original_animals_birds_1.png	K	0	0	0	426.107466100017	426.307459600037
102686.5	100	506	14	1	43	2	15	15	0	0	0	stim016_stimuli_original_vehicles_planes_4.png	Y	0	0	0	426.507472800091	426.707465400221
102786.5	100	507	14	1	43	3	1	9	0	0	0	stim002_stimuli_original_animals_birds_2.png	L	0	0	0	426.907452300191	427.107453200035
102886.5	100	508	14	1	43	4	6	4	0	0	0	stim007_stimuli_original_animals_fish_3.png	E	0	0	0	427.307465300197	427.507462100126
102986.5	100	509	14	1	43	5	11	6	0	0	0	stim012_stimuli_original_vehicles_boats_4.png	G	0	0	0	427.707477100194	427.907474700129
103086.75	100	510	14	1	43	6	4	10	1	0	0	stim005_stimuli_original_animals_fish_1.png	Q	0	0	0	428.107487100177	428.307484999998
103186.75	100	511	14	1	43	7	12	0	0	0	0	stim013_stimuli_original_vehicles_planes_1.png	A	0	0	0	428.50749400002	428.707497399999
103286.75	100	512	14	1	43	8	4	1	1	0	0	stim005_stimuli_original_animals_fish_1.png	B	0	0	0	428.907512100181	429.107511400012
103386.75	100	513	14	1	43	9	9	4	0	1	0	stim010_stimuli_original_vehicles_boats_2.png	E	0	0	0	429.307521100156	429.507514300058
103486.75	100	514	14	1	43	10	8	14	0	0	0	stim009_stimuli_original_vehicles_boats_1.png	V	0	0	0	429.707529300125	429.907529600197
103586.75	100	515	14	1	43	11	3	4	0	1	1	stim004_stimuli_original_animals_birds_4.png	E	0	0	0	430.107538900105	430.307540400187
103686.75	100	516	14	1	43	12	13	13	0	0	0	stim014_stimuli_original_vehicles_planes_2.png	U	0	0	0	430.507550800219	430.707550000167
103786.75	100	517	14	1	43	13	10	5	0	0	0	stim011_stimuli_original_vehicles_boats_3.png	F	d	431.099359600106	1	430.907560400199	431.107562400168
103886.75	100	518	14	1	43	14	4	3	0	0	0	stim005_stimuli_original_animals_fish_1.png	D	0	0	0	431.307574400213	431.507569400128
103986.75	100	519	14	1	43	15	5	2	0	0	0	stim006_stimuli_original_animals_fish_2.png	C	0	0	0	431.707584700081	431.907581700012
104086.75	100	520	14	1	43	16	7	12	0	0	0	stim008_stimuli_original_animals_fish_4.png	T	0	0	0	432.107594400179	432.307593300007
104186.75	100	521	14	1	43	17	14	11	0	0	0	stim015_stimuli_original_vehicles_planes_3.png	R	0	0	0	432.507603100035	432.707605300006
104286.75	100	522	14	1	43	18	11	14	0	0	0	stim012_stimuli_original_vehicles_boats_4.png	V	0	0	0	432.907615100034	433.10761340009
104386.75	100	523	14	1	43	19	12	7	0	0	0	stim013_stimuli_original_vehicles_planes_1.png	J	0	0	0	433.307627200149	433.507624900201
104486.75	100	524	14	1	43	20	2	5	0	0	0	stim003_stimuli_original_animals_birds_3.png	F	0	0	0	433.707637700019	433.90763830021
104586.75	100	525	14	1	43	21	3	4	0	0	0	stim004_stimuli_original_animals_birds_4.png	E	0	0	0	434.107647500001	434.307672700146
104686.75	100	526	14	1	43	22	5	10	0	0	0	stim006_stimuli_original_animals_fish_2.png	Q	0	0	0	434.507654400077	434.707657100167
104786.75	100	527	14	1	43	23	13	13	0	0	0	stim014_stimuli_original_vehicles_planes_2.png	U	0	0	0	434.907668600092	435.107668600045
104886.75	100	528	14	1	43	24	4	3	1	0	0	stim005_stimuli_original_animals_fish_1.png	D	0	0	0	435.307681700215	435.50768190017
104986.75	100	529	14	1	43	25	14	8	0	0	0	stim015_stimuli_original_vehicles_planes_3.png	K	0	0	0	435.707689200062	435.907692300156
105086.75	100	530	14	1	43	26	4	9	1	0	0	stim005_stimuli_original_animals_fish_1.png	L	0	0	0	436.107701900182	436.307701000012
105186.75	100	531	14	1	43	27	1	4	0	1	0	stim002_stimuli_original_animals_birds_2.png	E	0	0	0	436.507710900158	436.707712900126
105286.75	100	532	14	1	43	28	0	12	0	0	0	stim001_stimuli_original_animals_birds_1.png	T	0	0	0	436.907723600045	437.107723399997
105386.75	100	533	14	1	43	29	10	4	0	1	1	stim011_stimuli_original_vehicles_boats_3.png	E	0	0	0	437.307734500151	437.507743900176
105486.75	100	534	14	1	43	30	6	11	0	0	0	stim007_stimuli_original_animals_fish_3.png	R	d	437.899540000129	1	437.707743300125	437.90774350008
105586.75	100	535	14	1	43	31	4	6	0	0	0	stim005_stimuli_original_animals_fish_1.png	G	0	0	0	438.107757300138	438.307757900096
105686.75	100	536	14	1	43	32	9	1	0	0	0	stim010_stimuli_original_vehicles_boats_2.png	B	0	0	0	438.507764800219	438.707765100058
105786.75	100	537	14	1	43	33	15	15	0	0	0	stim016_stimuli_original_vehicles_planes_4.png	Y	0	0	0	438.907777500106	439.107776800171
105886.75	100	538	14	1	43	34	8	0	0	0	0	stim009_stimuli_original_vehicles_boats_1.png	A	0	0	0	439.307787500089	439.507784600137
105986.75	100	539	14	1	43	35	7	2	0	0	0	stim008_stimuli_original_animals_fish_4.png	C	0	0	0	439.707801900106	439.907798500033
108032.5	100	540	15	0	14	0	1	3	0	0	0	stim002_stimuli_original_animals_birds_2.png	D	0	0	0	447.891354300082	448.091355100041
108132.5	100	541	15	0	14	1	14	12	0	0	0	stim015_stimuli_original_vehicles_planes_3.png	T	0	0	0	448.291365700075	448.491365300026
108232.5	100	542	15	0	14	2	3	15	0	0	0	stim004_stimuli_original_animals_birds_4.png	Y	0	0	0	448.69137380016	448.89140120009
108332.5	100	543	15	0	14	3	11	0	0	0	0	stim012_stimuli_original_vehicles_boats_4.png	A	0	0	0	449.091384500032	449.291388900019
108432.5	100	544	15	0	14	4	15	11	0	0	0	stim016_stimuli_original_vehicles_planes_4.png	R	0	0	0	449.491409300128	449.691397100221
108532.5	100	545	15	0	14	5	0	9	0	0	0	stim001_stimuli_original_animals_birds_1.png	L	0	0	0	449.8914047	450.091405300191
108632.5	100	546	15	0	14	6	5	3	0	1	0	stim006_stimuli_original_animals_fish_2.png	D	0	0	0	450.29143060022	450.491414800053
108732.5	100	547	15	0	14	7	10	7	0	0	0	stim011_stimuli_original_vehicles_boats_3.png	J	0	0	0	450.691426200094	450.891427500173
108832.5	100	548	15	0	14	8	14	3	1	1	0	stim015_stimuli_original_vehicles_planes_3.png	D	0	0	0	451.091437900206	451.291437700158
108932.5	100	549	15	0	14	9	2	4	0	0	0	stim003_stimuli_original_animals_birds_3.png	E	0	0	0	451.491482600104	451.691463500028
109032.5	100	550	15	0	14	10	14	14	1	0	1	stim015_stimuli_original_vehicles_planes_3.png	V	0	0	0	451.891469200142	452.091466100188
109132.5	100	551	15	0	14	11	13	8	0	0	0	stim014_stimuli_original_vehicles_planes_2.png	K	0	0	0	452.291480400134	452.491475000046
109232.5	100	552	15	0	14	12	8	6	0	0	0	stim009_stimuli_original_vehicles_boats_1.png	G	0	0	0	452.691489899997	452.891487400047
109332.5	100	553	15	0	14	13	4	1	0	0	0	stim005_stimuli_original_animals_fish_1.png	B	0	0	0	453.091499800095	453.291500100167
109432.5	100	554	15	0	14	14	6	10	0	0	0	stim007_stimuli_original_animals_fish_3.png	Q	0	0	0	453.491508600069	453.691525000148
109532.5	100	555	15	0	14	15	12	13	0	0	0	stim013_stimuli_original_vehicles_planes_1.png	U	0	0	0	453.891520900186	454.091534200124
109632.5	100	556	15	0	14	16	7	2	0	0	0	stim008_stimuli_original_animals_fish_4.png	C	0	0	0	454.291531700175	454.491534100147
109732.5	100	557	15	0	14	17	9	5	0	0	0	stim010_stimuli_original_vehicles_boats_2.png	F	0	0	0	454.691541600041	454.891540700104
109832.5	100	558	15	0	14	18	5	9	0	0	0	stim006_stimuli_original_animals_fish_2.png	L	0	0	0	455.091552500147	455.291553999996
109932.5	100	559	15	0	14	19	2	7	0	0	0	stim003_stimuli_original_animals_birds_3.png	J	0	0	0	455.491563200019	455.691562200198
110032.75	100	560	15	0	14	20	13	12	0	0	0	stim014_stimuli_original_vehicles_planes_2.png	T	0	0	0	455.891576300142	456.091573300073
110132.75	100	561	15	0	14	21	10	6	0	0	0	stim011_stimuli_original_vehicles_boats_3.png	G	0	0	0	456.291612900095	456.491583900061
110232.75	100	562	15	0	14	22	1	4	0	0	0	stim002_stimuli_original_animals_birds_2.png	E	0	0	0	456.691597199999	456.891614100197
110332.75	100	563	15	0	14	23	6	8	0	0	0	stim007_stimuli_original_animals_fish_3.png	K	0	0	0	457.091609700117	457.291611100081
110432.75	100	564	15	0	14	24	8	13	0	0	0	stim009_stimuli_original_vehicles_boats_1.png	U	0	0	0	457.49161710008	457.691616500029
110532.75	100	565	15	0	14	25	14	14	0	1	0	stim015_stimuli_original_vehicles_planes_3.png	V	0	0	0	457.891627600184	458.091629400151
110632.75	100	566	15	0	14	26	4	2	0	0	0	stim005_stimuli_original_animals_fish_1.png	C	0	0	0	458.291640400188	458.491636899998
110732.75	100	567	15	0	14	27	3	14	1	1	0	stim004_stimuli_original_animals_birds_4.png	V	0	0	0	458.691650900058	458.891676300205
110832.75	100	568	15	0	14	28	7	10	0	0	0	stim008_stimuli_original_animals_fish_4.png	Q	0	0	0	459.091661800165	459.291660800111
110932.75	100	569	15	0	14	29	3	5	1	0	1	stim004_stimuli_original_animals_birds_4.png	F	0	0	0	459.491672800155	459.691669700202
111032.75	100	570	15	0	14	30	9	0	0	0	0	stim010_stimuli_original_vehicles_boats_2.png	A	0	0	0	459.891681400128	460.091679000063
111132.75	100	571	15	0	14	31	11	15	0	0	0	stim012_stimuli_original_vehicles_boats_4.png	Y	d	460.483482400188	1	460.2916921	460.491693500197
111232.75	100	572	15	0	14	32	0	11	0	0	0	stim001_stimuli_original_animals_birds_1.png	R	0	0	0	460.691706700018	460.891706400085
111332.75	100	573	15	0	14	33	15	3	0	0	0	stim016_stimuli_original_vehicles_planes_4.png	D	0	0	0	461.091716099996	461.291712300153
111432.75	100	574	15	0	14	34	12	14	0	0	0	stim013_stimuli_original_vehicles_planes_1.png	V	0	0	0	461.491741300095	461.691723900149
111532.75	100	575	15	0	14	35	3	1	0	0	0	stim004_stimuli_original_animals_birds_4.png	B	0	0	0	461.891735600075	462.091736700153
112349.25	100	576	16	1	23	0	5	9	0	0	0	stim006_stimuli_original_animals_fish_2.png	L	0	0	0	465.15851850016	465.358520600013
112449.25	100	577	16	1	23	1	8	13	0	0	0	stim009_stimuli_original_vehicles_boats_1.png	U	0	0	0	465.558503500186	465.758502500132
112549.25	100	578	16	1	23	2	11	1	0	0	0	stim012_stimuli_original_vehicles_boats_4.png	B	0	0	0	465.958517900202	466.158515600022
112649.25	100	579	16	1	23	3	0	0	0	0	0	stim001_stimuli_original_animals_birds_1.png	A	0	0	0	466.358526100172	466.55852760002
112749.25	100	580	16	1	23	4	2	14	0	0	0	stim003_stimuli_original_animals_birds_3.png	V	0	0	0	466.75854820013	466.958536399994
112849.25	100	581	16	1	23	5	9	5	0	0	0	stim010_stimuli_original_vehicles_boats_2.png	F	0	0	0	467.158568400191	467.358546500094
112949.25	100	582	16	1	23	6	10	3	0	0	0	stim011_stimuli_original_vehicles_boats_3.png	D	0	0	0	467.558560400037	467.758560900111
113049.25	100	583	16	1	23	7	8	8	1	1	0	stim009_stimuli_original_vehicles_boats_1.png	K	0	0	0	467.958568900125	468.158570100088
113149.25	100	584	16	1	23	8	3	10	0	0	0	stim004_stimuli_original_animals_birds_4.png	Q	0	0	0	468.358582400018	468.558578800177
113249.25	100	585	16	1	23	9	8	8	1	1	1	stim009_stimuli_original_vehicles_boats_1.png	K	0	0	0	468.758593000006	468.958589100046
113349.5	100	586	16	1	23	10	6	11	0	0	0	stim007_stimuli_original_animals_fish_3.png	R	0	0	0	469.158601600211	469.358594300225
113449.5	100	587	16	1	23	11	4	4	0	0	0	stim005_stimuli_original_animals_fish_1.png	E	0	0	0	469.558613100089	469.758621999994
113549.5	100	588	16	1	23	12	12	6	0	0	0	stim013_stimuli_original_vehicles_planes_1.png	G	0	0	0	469.958623000188	470.158622700023
113649.5	100	589	16	1	23	13	15	7	0	0	0	stim016_stimuli_original_vehicles_planes_4.png	J	0	0	0	470.358628400136	470.558621200034
113749.5	100	590	16	1	23	14	7	15	0	0	0	stim008_stimuli_original_animals_fish_4.png	Y	0	0	0	470.758633400081	470.958630900132
113849.5	100	591	16	1	23	15	14	8	0	0	0	stim015_stimuli_original_vehicles_planes_3.png	K	0	0	0	471.158653700026	471.358645800035
113949.5	100	592	16	1	23	16	1	12	0	0	0	stim002_stimuli_original_animals_birds_2.png	T	0	0	0	471.558658400085	471.75865600002
114049.5	100	593	16	1	23	17	13	2	0	0	0	stim014_stimuli_original_vehicles_planes_2.png	C	0	0	0	471.958692800021	472.158666900126
114149.5	100	594	16	1	23	18	2	13	0	0	0	stim003_stimuli_original_animals_birds_3.png	U	0	0	0	472.35867560003	472.558690300211
114249.5	100	595	16	1	23	19	12	1	0	0	0	stim013_stimuli_original_vehicles_planes_1.png	B	0	0	0	472.758689600043	472.958685600199
114349.5	100	596	16	1	23	20	8	14	0	0	0	stim009_stimuli_original_vehicles_boats_1.png	V	0	0	0	473.158721700078	473.358698300086
114449.5	100	597	16	1	23	21	15	7	0	0	0	stim016_stimuli_original_vehicles_planes_4.png	J	0	0	0	473.558709000004	473.758709100075
114549.5	100	598	16	1	23	22	7	15	0	0	0	stim008_stimuli_original_animals_fish_4.png	Y	0	0	0	473.958720100112	474.158720200183
114649.5	100	599	16	1	23	23	6	12	0	0	0	stim007_stimuli_original_animals_fish_3.png	T	0	0	0	474.358730200212	474.558755400125
114749.5	100	600	16	1	23	24	4	4	0	0	0	stim005_stimuli_original_animals_fish_1.png	E	0	0	0	474.758740500081	474.958739300026
114849.5	100	601	16	1	23	25	11	6	0	0	0	stim012_stimuli_original_vehicles_boats_4.png	G	0	0	0	475.158773000119	475.358752500033
114949.5	100	602	16	1	23	26	8	8	1	1	0	stim009_stimuli_original_vehicles_boats_1.png	K	0	0	0	475.558763200184	475.758761500008
115049.5	100	603	16	1	23	27	10	3	0	0	0	stim011_stimuli_original_vehicles_boats_3.png	D	0	0	0	475.958771600155	476.158771000104
115149.5	100	604	16	1	23	28	8	8	1	1	1	stim009_stimuli_original_vehicles_boats_1.png	K	0	0	0	476.35878270003	476.558783500222
115249.5	100	605	16	1	23	29	3	10	0	0	0	stim004_stimuli_original_animals_birds_4.png	Q	0	0	0	476.758796900045	476.958795700222
115349.5	100	606	16	1	23	30	5	9	0	0	0	stim006_stimuli_original_animals_fish_2.png	L	0	0	0	477.158814900089	477.358804900199
115449.5	100	607	16	1	23	31	14	2	0	0	0	stim015_stimuli_original_vehicles_planes_3.png	C	0	0	0	477.558817600133	477.758829600178
115549.5	100	608	16	1	23	32	0	0	0	0	0	stim001_stimuli_original_animals_birds_1.png	A	0	0	0	477.958827099996	478.158824400045
115649.5	100	609	16	1	23	33	1	11	0	0	0	stim002_stimuli_original_animals_birds_2.png	R	0	0	0	478.358837400097	478.558836400043
115749.5	100	610	16	1	23	34	13	8	0	0	0	stim014_stimuli_original_vehicles_planes_2.png	K	0	0	0	478.758848100202	478.95884820004
115849.5	100	611	16	1	23	35	9	5	0	0	0	stim010_stimuli_original_vehicles_boats_2.png	F	0	0	0	479.158858300187	479.358899600105
131120.75	100	612	17	0	0	0	14	14	0	0	0	stim015_stimuli_original_vehicles_planes_3.png	V	0	0	0	540.243869000115	540.443856600206
131220.75	100	613	17	0	0	1	4	13	0	0	0	stim005_stimuli_original_animals_fish_1.png	U	0	0	0	540.643866600003	540.843859400135
131320.75	100	614	17	0	0	2	0	4	0	0	0	stim001_stimuli_original_animals_birds_1.png	E	0	0	0	541.043882500147	541.243883999996
131420.75	100	615	17	0	0	3	13	10	0	0	0	stim014_stimuli_original_vehicles_planes_2.png	Q	0	0	0	541.443896600045	541.643902900163
131520.75	100	616	17	0	0	4	12	0	0	0	0	stim013_stimuli_original_vehicles_planes_1.png	A	0	0	0	541.843905800022	542.043907400221
131620.75	100	617	17	0	0	5	3	14	0	1	0	stim004_stimuli_original_animals_birds_4.png	V	0	0	0	542.243920500157	542.443892700132
131720.75	100	618	17	0	0	6	6	5	0	0	0	stim007_stimuli_original_animals_fish_3.png	F	0	0	0	542.643926200224	542.843944300199
131820.75	100	619	17	0	0	7	15	14	0	1	0	stim016_stimuli_original_vehicles_planes_4.png	V	0	0	0	543.043922300218	543.243935200153
131920.75	100	620	17	0	0	8	9	6	0	0	0	stim010_stimuli_original_vehicles_boats_2.png	G	0	0	0	543.443960400065	543.643949800171
132020.75	100	621	17	0	0	9	11	1	0	0	0	stim012_stimuli_original_vehicles_boats_4.png	B	0	0	0	543.843963100109	544.043963700067
132120.75	100	622	17	0	0	10	5	11	1	0	0	stim006_stimuli_original_animals_fish_2.png	R	0	0	0	544.243959400104	544.443972900044
132220.75	100	623	17	0	0	11	1	12	0	0	0	stim002_stimuli_original_animals_birds_2.png	T	0	0	0	544.643983900081	544.843981000129
132320.75	100	624	17	0	0	12	5	2	1	0	1	stim006_stimuli_original_animals_fish_2.png	C	0	0	0	545.043990900042	545.243992400123
132420.75	100	625	17	0	0	13	7	8	0	0	0	stim008_stimuli_original_animals_fish_4.png	K	0	0	0	545.443997000111	545.644007500028
132520.75	100	626	17	0	0	14	10	7	0	0	0	stim011_stimuli_original_vehicles_boats_3.png	J	0	0	0	545.844015000155	546.043999100104
132620.75	100	627	17	0	0	15	2	9	0	0	0	stim003_stimuli_original_animals_birds_3.png	L	0	0	0	546.244023300009	546.4440239002
132720.75	100	628	17	0	0	16	8	3	0	0	0	stim009_stimuli_original_vehicles_boats_1.png	D	0	0	0	546.64403270022	546.844032700174
132820.75	100	629	17	0	0	17	5	15	0	0	0	stim006_stimuli_original_animals_fish_2.png	Y	0	0	0	547.044045300223	547.24404660007
132920.75	100	630	17	0	0	18	15	5	0	0	0	stim016_stimuli_original_vehicles_planes_4.png	F	0	0	0	547.444059400121	547.644074700074
133020.75	100	631	17	0	0	19	3	8	0	0	0	stim004_stimuli_original_animals_birds_4.png	K	0	0	0	547.844065900194	548.044064800022
133120.75	100	632	17	0	0	20	9	2	0	0	0	stim010_stimuli_original_vehicles_boats_2.png	C	0	0	0	548.244084500009	548.444073799998
133220.75	100	633	17	0	0	21	7	10	0	0	0	stim008_stimuli_original_animals_fish_4.png	Q	0	0	0	548.644083400024	548.844084500102
133320.75	100	634	17	0	0	22	8	7	0	0	0	stim009_stimuli_original_vehicles_boats_1.png	J	0	0	0	549.044091900112	549.244093800196
133420.75	100	635	17	0	0	23	2	5	0	1	0	stim003_stimuli_original_animals_birds_3.png	F	0	0	0	549.444103999995	549.644109100103
133520.75	100	636	17	0	0	24	12	1	0	0	0	stim013_stimuli_original_vehicles_planes_1.png	B	0	0	0	549.844101900002	550.044112900039
133620.75	100	637	17	0	0	25	11	5	0	1	0	stim012_stimuli_original_vehicles_boats_4.png	F	0	0	0	550.244125000201	550.444127400173
133720.75	100	638	17	0	0	26	1	11	0	0	0	stim002_stimuli_original_animals_birds_2.png	R	0	0	0	550.644128500018	550.844138100045
133820.75	100	639	17	0	0	27	6	9	0	0	0	stim007_stimuli_original_animals_fish_3.png	L	0	0	0	551.044146800181	551.244148200145
133920.75	100	640	17	0	0	28	14	15	1	0	0	stim015_stimuli_original_vehicles_planes_3.png	Y	0	0	0	551.444159100065	551.64415720012
134020.75	100	641	17	0	0	29	5	6	0	0	0	stim006_stimuli_original_animals_fish_2.png	G	0	0	0	551.844168500043	552.044169300003
134120.75	100	642	17	0	0	30	14	3	1	0	1	stim015_stimuli_original_vehicles_planes_3.png	D	0	0	0	552.244164300151	552.444181000115
134220.75	100	643	17	0	0	31	0	12	0	0	0	stim001_stimuli_original_animals_birds_1.png	T	0	0	0	552.644190800143	552.844192800112
134320.75	100	644	17	0	0	32	10	13	0	0	0	stim011_stimuli_original_vehicles_boats_3.png	U	d	553.036753599998	1	553.044201900018	553.244201800087
134420.75	100	645	17	0	0	33	4	0	0	0	0	stim005_stimuli_original_animals_fish_1.png	A	0	0	0	553.444214000134	553.64421040006
134520.75	100	646	17	0	0	34	13	4	0	0	0	stim014_stimuli_original_vehicles_planes_2.png	E	0	0	0	553.84422530001	554.044221500168
134620.75	100	647	17	0	0	35	14	14	0	0	0	stim015_stimuli_original_vehicles_planes_3.png	V	0	0	0	554.244234200101	554.444231300149
135604	100	648	18	1	12	0	13	10	0	0	0	stim014_stimuli_original_vehicles_planes_2.png	Q	0	0	0	558.177686600015	558.377671800088
135704	100	649	18	1	12	1	14	0	0	0	0	stim015_stimuli_original_vehicles_planes_3.png	A	0	0	0	558.577683900017	558.777681700187
135804	100	650	18	1	12	2	15	6	0	0	0	stim016_stimuli_original_vehicles_planes_4.png	G	0	0	0	558.97769300011	559.177681600209
135904	100	651	18	1	12	3	9	1	0	0	0	stim010_stimuli_original_vehicles_boats_2.png	B	0	0	0	559.377704300219	559.577735300176
136004	100	652	18	1	12	4	12	3	0	0	0	stim013_stimuli_original_vehicles_planes_1.png	D	0	0	0	559.777714400087	559.977714600042
136104	100	653	18	1	12	5	6	4	1	0	0	stim007_stimuli_original_animals_fish_3.png	E	0	0	0	560.17772750021	560.377727000043
136204	100	654	18	1	12	6	11	9	0	1	0	stim012_stimuli_original_vehicles_boats_4.png	L	0	0	0	560.577736400068	560.777734300122
136304	100	655	18	1	12	7	6	11	1	0	0	stim007_stimuli_original_animals_fish_3.png	R	0	0	0	560.977748300182	561.177744700108
136404	100	656	18	1	12	8	0	9	0	1	1	stim001_stimuli_original_animals_birds_1.png	L	0	0	0	561.377757400041	561.577758600004
136504	100	657	18	1	12	9	2	2	0	0	0	stim003_stimuli_original_animals_birds_3.png	C	0	0	0	561.777770900168	561.977769000223
136604	100	658	18	1	12	10	1	7	0	0	0	stim002_stimuli_original_animals_birds_2.png	J	d	562.369577400154	1	562.177787800087	562.377781300107
136704	100	659	18	1	12	11	5	13	0	0	0	stim006_stimuli_original_animals_fish_2.png	U	0	0	0	562.577792400029	562.777788800187
136804	100	660	18	1	12	12	8	15	0	0	0	stim009_stimuli_original_vehicles_boats_1.png	Y	0	0	0	562.977802800015	563.177784600062
136904	100	661	18	1	12	13	7	9	0	0	0	stim008_stimuli_original_animals_fish_4.png	L	0	0	0	563.377812799998	563.577812700067
137004	100	662	18	1	12	14	10	5	0	0	0	stim011_stimuli_original_vehicles_boats_3.png	F	0	0	0	563.777830100153	563.977823300054
137104	100	663	18	1	12	15	3	14	0	0	0	stim004_stimuli_original_animals_birds_4.png	V	0	0	0	564.17783410009	564.377830900019
137204	100	664	18	1	12	16	6	8	0	0	0	stim007_stimuli_original_animals_fish_3.png	K	0	0	0	564.577842200175	564.777842700016
137304	100	665	18	1	12	17	4	12	0	0	0	stim005_stimuli_original_animals_fish_1.png	T	0	0	0	564.977854300058	565.177853200119
137404	100	666	18	1	12	18	12	4	0	0	0	stim013_stimuli_original_vehicles_planes_1.png	E	0	0	0	565.377866300056	565.577863900224
137504	100	667	18	1	12	19	8	6	0	0	0	stim009_stimuli_original_vehicles_boats_1.png	G	0	0	0	565.77787650004	565.977875800105
137604.25	100	668	18	1	12	20	14	3	0	0	0	stim015_stimuli_original_vehicles_planes_3.png	D	0	0	0	566.177887200145	566.377890100004
137704.25	100	669	18	1	12	21	5	10	0	0	0	stim006_stimuli_original_animals_fish_2.png	Q	0	0	0	566.577905000187	566.777896000072
137804.25	100	670	18	1	12	22	9	7	0	0	0	stim010_stimuli_original_vehicles_boats_2.png	J	0	0	0	566.977916900069	567.177907800069
137904.25	100	671	18	1	12	23	15	8	0	0	0	stim016_stimuli_original_vehicles_planes_4.png	K	0	0	0	567.377920500003	567.577909700107
138004.25	100	672	18	1	12	24	13	5	0	0	0	stim014_stimuli_original_vehicles_planes_2.png	F	0	0	0	567.777928000083	567.977927800035
138104.25	100	673	18	1	12	25	7	1	0	0	0	stim008_stimuli_original_animals_fish_4.png	B	0	0	0	568.177941000089	568.377937600017
138204.25	100	674	18	1	12	26	2	2	0	0	0	stim003_stimuli_original_animals_birds_3.png	C	0	0	0	568.577951400075	568.777952500153
138304.25	100	675	18	1	12	27	9	0	1	0	0	stim010_stimuli_original_vehicles_boats_2.png	A	0	0	0	568.977964100195	569.177944900002
138404.25	100	676	18	1	12	28	11	6	0	1	0	stim012_stimuli_original_vehicles_boats_4.png	G	0	0	0	569.377972000046	569.577978700167
138504.25	100	677	18	1	12	29	9	11	1	0	0	stim010_stimuli_original_vehicles_boats_2.png	R	0	0	0	569.777983700158	569.977981200209
138604.25	100	678	18	1	12	30	4	6	0	1	1	stim005_stimuli_original_animals_fish_1.png	G	0	0	0	570.17799350014	570.377996500116
138704.25	100	679	18	1	12	31	3	12	0	0	0	stim004_stimuli_original_animals_birds_4.png	T	d	570.769800200127	1	570.578006000025	570.778003700078
138804.25	100	680	18	1	12	32	1	9	0	0	0	stim002_stimuli_original_animals_birds_2.png	L	0	0	0	570.97800540016	571.17801280017
138904.25	100	681	18	1	12	33	6	15	0	0	0	stim007_stimuli_original_animals_fish_3.png	Y	0	0	0	571.378024900099	571.57802240015
139004.25	100	682	18	1	12	34	0	14	0	0	0	stim001_stimuli_original_animals_birds_1.png	V	0	0	0	571.77803640021	571.978040500078
139104.25	100	683	18	1	12	35	10	13	0	0	0	stim011_stimuli_original_vehicles_boats_3.png	U	0	0	0	572.17804810009	572.378046100028
140241.75	100	684	19	0	1	0	4	8	0	0	0	stim005_stimuli_original_animals_fish_1.png	K	0	0	0	576.728185100015	576.928144500125
140341.75	100	685	19	0	1	1	10	2	0	0	0	stim011_stimuli_original_vehicles_boats_3.png	C	0	0	0	577.128159000073	577.328153200215
140441.75	100	686	19	0	1	2	8	4	0	0	0	stim009_stimuli_original_vehicles_boats_1.png	E	0	0	0	577.528165100142	577.728165000211
140541.75	100	687	19	0	1	3	11	14	0	0	0	stim012_stimuli_original_vehicles_boats_4.png	V	0	0	0	577.92817570013	578.128179399995
140641.75	100	688	19	0	1	4	3	10	0	0	0	stim004_stimuli_original_animals_birds_4.png	Q	0	0	0	578.328218800016	578.528187600197
140741.75	100	689	19	0	1	5	12	0	0	0	0	stim013_stimuli_original_vehicles_planes_1.png	A	0	0	0	578.72821070021	578.928212800063
140841.75	100	690	19	0	1	6	13	7	0	0	0	stim014_stimuli_original_vehicles_planes_2.png	J	0	0	0	579.128208200214	579.328221200034
140941.75	100	691	19	0	1	7	9	1	0	0	0	stim010_stimuli_original_vehicles_boats_2.png	B	0	0	0	579.528217100073	579.728218800155
141041.75	100	692	19	0	1	8	15	6	0	0	0	stim016_stimuli_original_vehicles_planes_4.png	G	0	0	0	579.928228100063	580.128228900023
141141.75	100	693	19	0	1	9	8	9	1	0	0	stim009_stimuli_original_vehicles_boats_1.png	L	0	0	0	580.328238900052	580.528238200117
141241.75	100	694	19	0	1	10	7	3	0	1	0	stim008_stimuli_original_animals_fish_4.png	D	0	0	0	580.72824950004	580.928278200096
141341.75	100	695	19	0	1	11	8	13	1	0	1	stim009_stimuli_original_vehicles_boats_1.png	U	d	581.120837500086	1	581.128261600155	581.328260600101
141441.75	100	696	19	0	1	12	0	3	0	1	0	stim001_stimuli_original_animals_birds_1.png	D	0	0	0	581.528296600096	581.728272600099
141541.75	100	697	19	0	1	13	6	5	0	0	0	stim007_stimuli_original_animals_fish_3.png	F	0	0	0	581.928284300026	582.128283300204
141641.75	100	698	19	0	1	14	1	15	0	0	0	stim002_stimuli_original_animals_birds_2.png	Y	0	0	0	582.328293400118	582.528294000076
141741.75	100	699	19	0	1	15	14	12	0	0	0	stim015_stimuli_original_vehicles_planes_3.png	T	0	0	0	582.728304899996	582.928303800058
141841.75	100	700	19	0	1	16	2	11	0	0	0	stim003_stimuli_original_animals_birds_3.png	R	0	0	0	583.128315100214	583.328314500162
141941.75	100	701	19	0	1	17	5	3	0	0	0	stim006_stimuli_original_animals_fish_2.png	D	0	0	0	583.528339600191	583.728326300159
142041.75	100	702	19	0	1	18	3	5	0	0	0	stim004_stimuli_original_animals_birds_4.png	F	0	0	0	583.928336900193	584.128339600051
142141.75	100	703	19	0	1	19	11	2	0	0	0	stim012_stimuli_original_vehicles_boats_4.png	C	0	0	0	584.328355200123	584.528361500008
142241.75	100	704	19	0	1	20	12	14	0	0	0	stim013_stimuli_original_vehicles_planes_1.png	V	0	0	0	584.728370300028	584.928369400091
142341.75	100	705	19	0	1	21	15	1	0	0	0	stim016_stimuli_original_vehicles_planes_4.png	B	0	0	0	585.128382300027	585.328378200065
142441.75	100	706	19	0	1	22	5	6	0	0	0	stim006_stimuli_original_animals_fish_2.png	G	0	0	0	585.528394500026	585.728411300108
142541.75	100	707	19	0	1	23	3	0	1	0	0	stim004_stimuli_original_animals_birds_4.png	A	0	0	0	585.928402000107	586.128414200153
142641.75	100	708	19	0	1	24	13	8	0	1	0	stim014_stimuli_original_vehicles_planes_2.png	K	0	0	0	586.328425900079	586.528412800049
142741.75	100	709	19	0	1	25	3	7	1	0	1	stim004_stimuli_original_animals_birds_4.png	J	0	0	0	586.728425100213	586.928421500139
142841.75	100	710	19	0	1	26	9	8	0	1	0	stim010_stimuli_original_vehicles_boats_2.png	K	0	0	0	587.128435300197	587.328432200011
142941.75	100	711	19	0	1	27	6	15	0	0	0	stim007_stimuli_original_animals_fish_3.png	Y	0	0	0	587.52844390017	587.728445000015
143041.75	100	712	19	0	1	28	1	9	0	0	0	stim002_stimuli_original_animals_birds_2.png	L	0	0	0	587.928457900183	588.128453700105
143141.75	100	713	19	0	1	29	7	13	0	0	0	stim008_stimuli_original_animals_fish_4.png	U	0	0	0	588.328492700122	588.528464800213
143241.75	100	714	19	0	1	30	0	12	0	0	0	stim001_stimuli_original_animals_birds_1.png	T	0	0	0	588.728477000026	588.928492400097
143341.75	100	715	19	0	1	31	10	3	0	0	0	stim011_stimuli_original_vehicles_boats_3.png	D	0	0	0	589.128486800008	589.328490300104
143441.75	100	716	19	0	1	32	14	11	0	0	0	stim015_stimuli_original_vehicles_planes_3.png	R	0	0	0	589.528496900108	589.72849670006
143541.75	100	717	19	0	1	33	4	8	0	0	0	stim005_stimuli_original_animals_fish_1.png	K	0	0	0	589.928511500126	590.128510000184
143641.75	100	718	19	0	1	34	2	10	0	0	0	stim003_stimuli_original_animals_birds_3.png	Q	0	0	0	590.328519000206	590.528518400155
143741.75	100	719	19	0	1	35	8	4	0	0	0	stim009_stimuli_original_vehicles_boats_1.png	E	0	0	0	590.728527900064	590.928555200109
144558.5	100	720	20	1	21	0	10	13	0	0	0	stim011_stimuli_original_vehicles_boats_3.png	U	0	0	0	593.995279400144	594.195294700097
144658.5	100	721	20	1	21	1	11	11	0	0	0	stim012_stimuli_original_vehicles_boats_4.png	R	0	0	0	594.395320800133	594.595306800213
144758.5	100	722	20	1	21	2	0	3	0	0	0	stim001_stimuli_original_animals_birds_1.png	D	0	0	0	594.795296400087	594.995293500135
144858.5	100	723	20	1	21	3	7	2	0	0	0	stim008_stimuli_original_animals_fish_4.png	C	0	0	0	595.195305400062	595.395307400031
144958.5	100	724	20	1	21	4	5	6	0	0	0	stim006_stimuli_original_animals_fish_2.png	G	0	0	0	595.595320800086	595.795318400022
145058.5	100	725	20	1	21	5	9	1	1	0	0	stim010_stimuli_original_vehicles_boats_2.png	B	0	0	0	595.995326800039	596.1953278
145158.5	100	726	20	1	21	6	15	4	0	0	0	stim016_stimuli_original_vehicles_planes_4.png	E	0	0	0	596.39533830015	596.595338800224
145258.5	100	727	20	1	21	7	9	0	1	0	0	stim010_stimuli_original_vehicles_boats_2.png	A	0	0	0	596.795350300148	596.995348200202
145358.5	100	728	20	1	21	8	4	9	0	0	0	stim005_stimuli_original_animals_fish_1.png	L	0	0	0	597.195359600009	597.3953602002
145458.5	100	729	20	1	21	9	1	15	0	0	0	stim002_stimuli_original_animals_birds_2.png	Y	0	0	0	597.595368700102	597.795368800173
145558.5	100	730	20	1	21	10	12	14	0	0	0	stim013_stimuli_original_vehicles_planes_1.png	V	0	0	0	597.995381500106	598.195379300043
145658.5	100	731	20	1	21	11	13	12	0	0	0	stim014_stimuli_original_vehicles_planes_2.png	T	0	0	0	598.395391100086	598.595390800154
145758.5	100	732	20	1	21	12	9	4	0	1	0	stim010_stimuli_original_vehicles_boats_2.png	E	0	0	0	598.795402400196	598.995401900029
145858.5	100	733	20	1	21	13	8	10	0	0	0	stim009_stimuli_original_vehicles_boats_1.png	Q	0	0	0	599.19542390015	599.395413300022
145958.5	100	734	20	1	21	14	14	4	0	1	1	stim015_stimuli_original_vehicles_planes_3.png	E	0	0	0	599.595423300052	599.795422499999
146058.5	100	735	20	1	21	15	6	5	0	0	0	stim007_stimuli_original_animals_fish_3.png	F	0	0	0	599.995434000157	600.195436000125
146158.5	100	736	20	1	21	16	3	8	0	0	0	stim004_stimuli_original_animals_birds_4.png	K	d	600.587236599997	1	600.39544400014	600.595445000101
146258.5	100	737	20	1	21	17	2	7	0	0	0	stim003_stimuli_original_animals_birds_3.png	J	0	0	0	600.795456400141	600.995455300203
146358.5	100	738	20	1	21	18	7	2	0	0	0	stim008_stimuli_original_animals_fish_4.png	C	0	0	0	601.195465200115	601.395466900198
146458.5	100	739	20	1	21	19	8	3	0	0	0	stim009_stimuli_original_vehicles_boats_1.png	D	0	0	0	601.595476500224	601.79547810019
146558.5	100	740	20	1	21	20	5	6	0	0	0	stim006_stimuli_original_animals_fish_2.png	G	0	0	0	601.995492000133	602.195487600053
146658.5	100	741	20	1	21	21	4	14	1	0	0	stim005_stimuli_original_animals_fish_1.png	V	0	0	0	602.395498200087	602.595502100186
146758.5	100	742	20	1	21	22	10	8	0	0	0	stim011_stimuli_original_vehicles_boats_3.png	K	0	0	0	602.795510400087	602.995509800036
146858.5	100	743	20	1	21	23	4	9	1	0	0	stim005_stimuli_original_animals_fish_1.png	L	0	0	0	603.195519000059	603.39552050014
146958.5	100	744	20	1	21	24	12	13	0	0	0	stim013_stimuli_original_vehicles_planes_1.png	U	0	0	0	603.595532300184	603.795531200012
147058.5	100	745	20	1	21	25	14	12	0	0	0	stim015_stimuli_original_vehicles_planes_3.png	T	0	0	0	603.99554270017	604.195558800129
147158.5	100	746	20	1	21	26	15	1	0	0	0	stim016_stimuli_original_vehicles_planes_4.png	B	0	0	0	604.395553100156	604.595551700098
147258.5	100	747	20	1	21	27	9	4	0	0	0	stim010_stimuli_original_vehicles_boats_2.png	E	0	0	0	604.795564000029	604.995562700089
147358.5	100	748	20	1	21	28	0	9	0	1	0	stim001_stimuli_original_animals_birds_1.png	L	0	0	0	605.195598000195	605.395573000191
147458.5	100	749	20	1	21	29	4	15	0	0	0	stim005_stimuli_original_animals_fish_1.png	Y	0	0	0	605.595586900134	605.795588700101
147558.5	100	750	20	1	21	30	1	9	0	1	1	stim002_stimuli_original_animals_birds_2.png	L	0	0	0	605.99559520022	606.19559340016
147658.5	100	751	20	1	21	31	6	5	0	0	0	stim007_stimuli_original_animals_fish_3.png	F	0	0	0	606.395606600214	606.595605500042
147758.5	100	752	20	1	21	32	2	7	0	0	0	stim003_stimuli_original_animals_birds_3.png	J	d	606.788185200188	1	606.795617100084	606.995617100038
147858.5	100	753	20	1	21	33	3	0	0	0	0	stim004_stimuli_original_animals_birds_4.png	A	0	0	0	607.195627100067	607.395629000152
147958.5	100	754	20	1	21	34	11	11	0	0	0	stim012_stimuli_original_vehicles_boats_4.png	R	0	0	0	607.595641900087	607.795637600124
148058.5	100	755	20	1	21	35	13	10	0	0	0	stim014_stimuli_original_vehicles_planes_2.png	Q	0	0	0	607.995650300058	608.195648200111
157654.5	100	756	21	0	29	0	1	14	0	0	0	stim002_stimuli_original_animals_birds_2.png	V	0	0	0	646.380040200194	646.580040300032
157754.5	100	757	21	0	29	1	9	13	0	0	0	stim010_stimuli_original_vehicles_boats_2.png	U	0	0	0	646.780049000168	646.980046300218
157854.5	100	758	21	0	29	2	2	8	0	0	0	stim003_stimuli_original_animals_birds_3.png	K	0	0	0	647.180058600148	647.380055900197
157954.5	100	759	21	0	29	3	14	5	0	0	0	stim015_stimuli_original_vehicles_planes_3.png	F	0	0	0	647.580068800133	647.780082000187
158054.5	100	760	21	0	29	4	15	10	1	0	0	stim016_stimuli_original_vehicles_planes_4.png	Q	0	0	0	647.980088500073	648.180077300174
158154.5	100	761	21	0	29	5	12	4	0	0	0	stim013_stimuli_original_vehicles_planes_1.png	E	0	0	0	648.380093200132	648.580076300073
158254.5	100	762	21	0	29	6	15	9	1	0	1	stim016_stimuli_original_vehicles_planes_4.png	L	0	0	0	648.780100600095	648.980100400047
158354.5	100	763	21	0	29	7	4	6	0	1	0	stim005_stimuli_original_animals_fish_1.png	G	d	649.371888500173	1	649.180097100092	649.38011350017
158454.75	100	764	21	0	29	8	5	15	0	0	0	stim006_stimuli_original_animals_fish_2.png	Y	0	0	0	649.580122300191	649.780121400021
158554.75	100	765	21	0	29	9	7	6	0	1	0	stim008_stimuli_original_animals_fish_4.png	G	0	0	0	649.980141400127	650.180133900139
158654.75	100	766	21	0	29	10	3	0	0	0	0	stim004_stimuli_original_animals_birds_4.png	A	0	0	0	650.380154500017	650.580146800028
158754.75	100	767	21	0	29	11	8	2	0	0	0	stim009_stimuli_original_vehicles_boats_1.png	C	0	0	0	650.780160300201	650.980155100115
158854.75	100	768	21	0	29	12	6	12	0	0	0	stim007_stimuli_original_animals_fish_3.png	T	0	0	0	651.180149300024	651.380166999996
158954.75	100	769	21	0	29	13	11	1	0	0	0	stim012_stimuli_original_vehicles_boats_4.png	B	0	0	0	651.580185500206	651.780174900079
159054.75	100	770	21	0	29	14	10	11	0	0	0	stim011_stimuli_original_vehicles_boats_3.png	R	0	0	0	651.980186300119	652.180191900115
159154.75	100	771	21	0	29	15	15	6	0	0	0	stim016_stimuli_original_vehicles_planes_4.png	G	0	0	0	652.380197700113	652.580182500184
159254.75	100	772	21	0	29	16	0	3	0	0	0	stim001_stimuli_original_animals_birds_1.png	D	0	0	0	652.780209300108	652.980209300062
159354.75	100	773	21	0	29	17	13	7	0	0	0	stim014_stimuli_original_vehicles_planes_2.png	J	0	0	0	653.180210200138	653.380223200191
159454.75	100	774	21	0	29	18	7	13	0	0	0	stim008_stimuli_original_animals_fish_4.png	U	0	0	0	653.580233000219	653.780232400168
159554.75	100	775	21	0	29	19	3	0	0	0	0	stim004_stimuli_original_animals_birds_4.png	A	0	0	0	653.980241500074	654.180243300041
159654.75	100	776	21	0	29	20	6	15	0	0	0	stim007_stimuli_original_animals_fish_3.png	Y	0	0	0	654.380253000185	654.580237800023
159754.75	100	777	21	0	29	21	11	10	0	0	0	stim012_stimuli_original_vehicles_boats_4.png	Q	0	0	0	654.78025800013	654.980262700003
159854.75	100	778	21	0	29	22	1	11	0	0	0	stim002_stimuli_original_animals_birds_2.png	R	0	0	0	655.180290500168	655.380271800095
159954.75	100	779	21	0	29	23	12	6	0	0	0	stim013_stimuli_original_vehicles_planes_1.png	G	0	0	0	655.580284500029	655.780282100197
160054.75	100	780	21	0	29	24	2	8	0	0	0	stim003_stimuli_original_animals_birds_3.png	K	0	0	0	655.980296500027	656.18028080021
160154.75	100	781	21	0	29	25	0	3	0	0	0	stim001_stimuli_original_animals_birds_1.png	D	0	0	0	656.380310200155	656.58030570019
160254.75	100	782	21	0	29	26	6	7	1	0	0	stim007_stimuli_original_animals_fish_3.png	J	0	0	0	656.780315900221	656.980319800088
160354.75	100	783	21	0	29	27	15	5	0	0	0	stim016_stimuli_original_vehicles_planes_4.png	F	0	0	0	657.180325700203	657.380316700088
160454.75	100	784	21	0	29	28	6	4	1	0	1	stim007_stimuli_original_animals_fish_3.png	E	0	0	0	657.580336100189	657.780359500088
160554.75	100	785	21	0	29	29	9	15	0	1	0	stim010_stimuli_original_vehicles_boats_2.png	Y	d	658.180509900209	1	657.980349200079	658.180337300058
160654.75	100	786	21	0	29	30	4	12	0	0	0	stim005_stimuli_original_animals_fish_1.png	T	0	0	0	658.380361500196	658.580360900145
160754.75	100	787	21	0	29	31	10	15	0	1	0	stim011_stimuli_original_vehicles_boats_3.png	Y	0	0	0	658.78036980005	658.980359000154
160854.75	100	788	21	0	29	32	5	14	0	0	0	stim006_stimuli_original_animals_fish_2.png	V	0	0	0	659.180382800056	659.380381199997
160954.75	100	789	21	0	29	33	8	2	0	0	0	stim009_stimuli_original_vehicles_boats_1.png	C	0	0	0	659.580391800031	659.780376300216
161054.75	100	790	21	0	29	34	13	9	0	0	0	stim014_stimuli_original_vehicles_planes_2.png	L	0	0	0	659.980403000023	660.180402200203
161154.75	100	791	21	0	29	35	14	1	0	0	0	stim015_stimuli_original_vehicles_planes_3.png	B	0	0	0	660.380419600056	660.580414600205
161700.5	100	792	22	1	4	0	6	10	0	0	0	stim007_stimuli_original_animals_fish_3.png	Q	0	0	0	662.563792000059	662.763779000146
161800.5	100	793	22	1	4	1	11	2	0	0	0	stim012_stimuli_original_vehicles_boats_4.png	C	0	0	0	662.963791600196	663.163788300008
161900.5	100	794	22	1	4	2	14	15	0	0	0	stim015_stimuli_original_vehicles_planes_3.png	Y	0	0	0	663.363804600202	663.563802200137
162000.5	100	795	22	1	4	3	12	12	0	0	0	stim013_stimuli_original_vehicles_planes_1.png	T	0	0	0	663.763813000172	663.963827900123
