onset	duration	eventnumber	sequencenumber	condition	streamnumber	stimnumber	objectstimnumber	letterstimnumber	objecttarget	lettertarget	is2back	objectstim	letterstim	response	rt	correct	time_stimon	time_stimoff
3492.75	100	0	0	0	0	0	6	12	0	0	0	stim007_stimuli_original_animals_fish_3.png	T	0	0	0	98.2333209000062	98.4337748999242
3592.75	100	1	0	0	0	1	7	5	0	0	0	stim008_stimuli_original_animals_fish_4.png	F	0	0	0	98.6333214999177	98.8333041999722
3692.75	100	2	0	0	0	2	4	6	0	0	0	stim005_stimuli_original_animals_fish_1.png	G	0	0	0	99.0333137999987	99.2333126999438
3792.75	100	3	0	0	0	3	0	0	0	0	0	stim001_stimuli_original_animals_birds_1.png	A	0	0	0	99.4333241999848	99.6333233999321
3892.75	100	4	0	0	0	4	9	11	0	0	0	stim010_stimuli_original_vehicles_boats_2.png	R	0	0	0	99.8333386000013	100.033333499916
3993	100	5	0	0	0	5	5	3	0	0	0	stim006_stimuli_original_animals_fish_2.png	D	0	0	0	100.233387999935	100.433343400015
4092.75	100	6	0	0	0	6	13	10	0	0	0	stim014_stimuli_original_vehicles_planes_2.png	Q	0	0	0	100.633369599935	100.833357099909
4192.75	100	7	0	0	0	7	15	14	0	0	0	stim016_stimuli_original_vehicles_planes_4.png	V	0	0	0	101.033366999938	101.233369499911
4293	100	8	0	0	0	8	1	1	0	0	0	stim002_stimuli_original_animals_birds_2.png	B	0	0	0	101.433380499948	101.633375099977
4393	100	9	0	0	0	9	5	2	1	0	0	stim006_stimuli_original_animals_fish_2.png	C	0	0	0	101.833388399915	102.033386199968
4493	100	10	0	0	0	10	12	8	0	0	0	stim013_stimuli_original_vehicles_planes_1.png	K	d	102.425225500017	0	102.23340259993	102.433410299942
4593	100	11	0	0	0	11	5	4	1	0	1	stim006_stimuli_original_animals_fish_2.png	E	d	102.825210499926	1	102.633413199917	102.833437299938
4693	100	12	0	0	0	12	8	12	0	1	0	stim009_stimuli_original_vehicles_boats_1.png	T	0	0	0	103.033423799905	103.233418499934
4793	100	13	0	0	0	13	14	7	0	0	0	stim015_stimuli_original_vehicles_planes_3.png	J	0	0	0	103.433454499929	103.63343009993
4893	100	14	0	0	0	14	11	12	0	1	0	stim012_stimuli_original_vehicles_boats_4.png	T	0	0	0	103.833721700008	104.033445599955
4993	100	15	0	0	0	15	10	9	0	0	0	stim011_stimuli_original_vehicles_boats_3.png	L	0	0	0	104.233452999964	104.433451799909
5093	100	16	0	0	0	16	3	15	0	0	0	stim004_stimuli_original_animals_birds_4.png	Y	0	0	0	104.633467599982	104.833463999908
5193	100	17	0	0	0	17	2	13	0	0	0	stim003_stimuli_original_animals_birds_3.png	U	0	0	0	105.033472199924	105.233473400003
5293	100	18	0	0	0	18	13	2	0	0	0	stim014_stimuli_original_vehicles_planes_2.png	C	0	0	0	105.433500999934	105.633483199985
5393	100	19	0	0	0	19	15	3	0	0	0	stim016_stimuli_original_vehicles_planes_4.png	D	0	0	0	105.833497899934	106.033513800008
5493	100	20	0	0	0	20	9	10	0	0	0	stim010_stimuli_original_vehicles_boats_2.png	Q	0	0	0	106.233505899902	106.433503599954
5593	100	21	0	0	0	21	12	11	1	0	0	stim013_stimuli_original_vehicles_planes_1.png	R	0	0	0	106.633515900001	106.833529999945
5693	100	22	0	0	0	22	7	14	0	0	0	stim008_stimuli_original_animals_fish_4.png	V	0	0	0	107.033540799981	107.233539999928
5793	100	23	0	0	0	23	12	8	1	0	1	stim013_stimuli_original_vehicles_planes_1.png	K	d	107.625374099938	1	107.433560399921	107.633548799902
5893	100	24	0	0	0	24	4	5	0	1	0	stim005_stimuli_original_animals_fish_1.png	F	d	108.025409299997	1	107.833559199935	108.033572999993
5993	100	25	0	0	0	25	8	12	0	0	0	stim009_stimuli_original_vehicles_boats_1.png	T	0	0	0	108.233570599928	108.433571200003
6093	100	26	0	0	0	26	2	5	0	1	0	stim003_stimuli_original_animals_birds_3.png	F	0	0	0	108.633587599965	108.833579699975
6193	100	27	0	0	0	27	1	1	0	0	0	stim002_stimuli_original_animals_birds_2.png	B	0	0	0	109.033593299915	109.23359269998
6293	100	28	0	0	0	28	14	15	0	0	0	stim015_stimuli_original_vehicles_planes_3.png	Y	0	0	0	109.433602500008	109.633602699963
6393	100	29	0	0	0	29	10	13	0	0	0	stim011_stimuli_original_vehicles_boats_3.png	U	0	0	0	109.833614800009	110.033612199943
6493	100	30	0	0	0	30	3	5	0	0	0	stim004_stimuli_original_animals_birds_4.png	F	0	0	0	110.233667499968	110.433622699929
6593	100	31	0	0	0	31	11	9	0	0	0	stim012_stimuli_original_vehicles_boats_4.png	L	0	0	0	110.633647099952	110.83365289995
6693	100	32	0	0	0	32	0	0	0	0	0	stim001_stimuli_original_animals_birds_1.png	A	0	0	0	111.03364239994	111.233657100005
6793	100	33	0	0	0	33	6	4	0	0	0	stim007_stimuli_original_animals_fish_3.png	E	0	0	0	111.433655299945	111.633653800003
6893	100	34	0	0	0	34	5	7	0	0	0	stim006_stimuli_original_animals_fish_2.png	J	0	0	0	111.833666799939	112.033665499999
6993	100	35	0	0	0	35	12	6	0	0	0	stim013_stimuli_original_vehicles_planes_1.png	G	0	0	0	112.233675699914	112.433676099987
7743	100	36	1	1	19	0	11	7	0	0	0	stim012_stimuli_original_vehicles_boats_4.png	J	0	0	0	115.233752599917	115.433778599952
7843	100	37	1	1	19	1	13	9	0	0	0	stim014_stimuli_original_vehicles_planes_2.png	L	0	0	0	115.633806500002	115.833774099941
7943	100	38	1	1	19	2	2	4	0	0	0	stim003_stimuli_original_animals_birds_3.png	E	0	0	0	116.033792899922	116.233792799991
8043	100	39	1	1	19	3	0	0	0	0	0	stim001_stimuli_original_animals_birds_1.png	A	0	0	0	116.433802599902	116.633804399986
8143	100	40	1	1	19	4	10	10	0	0	0	stim011_stimuli_original_vehicles_boats_3.png	Q	0	0	0	116.833816799917	117.033813599963
8243	100	41	1	1	19	5	15	2	0	0	0	stim016_stimuli_original_vehicles_planes_4.png	C	0	0	0	117.233825000003	117.433833399904
8343	100	42	1	1	19	6	1	14	0	0	0	stim002_stimuli_original_animals_birds_2.png	V	0	0	0	117.633835399989	117.83384169999
8443	100	43	1	1	19	7	14	8	0	0	0	stim015_stimuli_original_vehicles_planes_3.png	K	0	0	0	118.033850000007	118.233829499921
8543	100	44	1	1	19	8	13	5	1	0	0	stim014_stimuli_original_vehicles_planes_2.png	F	0	0	0	118.433864099905	118.633856399916
8643	100	45	1	1	19	9	12	15	0	0	0	stim013_stimuli_original_vehicles_planes_1.png	Y	0	0	0	118.833866799949	119.033867399907
8743	100	46	1	1	19	10	13	13	1	0	0	stim014_stimuli_original_vehicles_planes_2.png	U	0	0	0	119.233880699961	119.433876900002
8843	100	47	1	1	19	11	3	6	0	0	0	stim004_stimuli_original_animals_birds_4.png	G	0	0	0	119.63387609995	119.833888399997
8943	100	48	1	1	19	12	4	8	0	1	0	stim005_stimuli_original_animals_fish_1.png	K	0	0	0	120.033883799915	120.233896999969
9043	100	49	1	1	19	13	9	3	0	0	0	stim010_stimuli_original_vehicles_boats_2.png	D	0	0	0	120.433935799985	120.63391199999
9143	100	50	1	1	19	14	7	8	0	1	1	stim008_stimuli_original_animals_fish_4.png	K	d	121.025713899988	1	120.833927099942	121.033918499947
9243	100	51	1	1	19	15	5	12	0	0	0	stim006_stimuli_original_animals_fish_2.png	T	0	0	0	121.233932400006	121.433931999956
9343	100	52	1	1	19	16	6	1	0	0	0	stim007_stimuli_original_animals_fish_3.png	B	0	0	0	121.633946899907	121.833942199941
9443	100	53	1	1	19	17	8	11	0	0	0	stim009_stimuli_original_vehicles_boats_1.png	R	0	0	0	122.03395740001	122.233953099931
9543	100	54	1	1	19	18	11	8	0	0	0	stim012_stimuli_original_vehicles_boats_4.png	K	0	0	0	122.433965599979	122.633955099969
9643	100	55	1	1	19	19	1	6	0	0	0	stim002_stimuli_original_animals_birds_2.png	G	0	0	0	122.833976299968	123.033973799902
9743	100	56	1	1	19	20	12	5	0	0	0	stim013_stimuli_original_vehicles_planes_1.png	F	0	0	0	123.233981699916	123.433987699915
9843	100	57	1	1	19	21	8	7	1	0	0	stim009_stimuli_original_vehicles_boats_1.png	J	0	0	0	123.633993999916	123.83399720001
9943	100	58	1	1	19	22	3	9	0	0	0	stim004_stimuli_original_animals_birds_4.png	L	0	0	0	124.034005699912	124.234005099977
10043	100	59	1	1	19	23	8	4	1	0	0	stim009_stimuli_original_vehicles_boats_1.png	E	0	0	0	124.434042699984	124.634015699965
10143	100	60	1	1	19	24	6	3	0	0	0	stim007_stimuli_original_animals_fish_3.png	D	0	0	0	124.834028000012	125.03402729996
10243	100	61	1	1	19	25	13	13	0	1	0	stim014_stimuli_original_vehicles_planes_2.png	U	0	0	0	125.234049299965	125.434041599976
10343	100	62	1	1	19	26	15	12	0	0	0	stim016_stimuli_original_vehicles_planes_4.png	T	0	0	0	125.634050299996	125.834034199943
10443	100	63	1	1	19	27	5	13	0	1	1	stim006_stimuli_original_animals_fish_2.png	U	0	0	0	126.034063200001	126.234058099915
10543	100	64	1	1	19	28	8	14	0	0	0	stim009_stimuli_original_vehicles_boats_1.png	V	0	0	0	126.434073799988	126.634069499909
10643	100	65	1	1	19	29	14	1	0	0	0	stim015_stimuli_original_vehicles_planes_3.png	B	d	127.025898299995	1	126.834081699955	127.034082299913
10743	100	66	1	1	19	30	2	15	0	0	0	stim003_stimuli_original_animals_birds_3.png	Y	0	0	0	127.234090499929	127.434094399912
10843	100	67	1	1	19	31	10	10	0	0	0	stim011_stimuli_original_vehicles_boats_3.png	Q	0	0	0	127.63410409994	127.83411029994
10943	100	68	1	1	19	32	0	0	0	0	0	stim001_stimuli_original_animals_birds_1.png	A	0	0	0	128.034116099938	128.234112199978
11043	100	69	1	1	19	33	4	2	0	0	0	stim005_stimuli_original_animals_fish_1.png	C	d	128.426715299953	0	128.434124399908	128.634123499971
11143	100	70	1	1	19	34	9	13	0	0	0	stim010_stimuli_original_vehicles_boats_2.png	U	0	0	0	128.83413819992	129.034135399968
11243	100	71	1	1	19	35	7	11	0	0	0	stim008_stimuli_original_animals_fish_4.png	R	0	0	0	129.234152099933	129.434146599961
11822.25	100	72	2	0	46	0	2	6	0	0	0	stim003_stimuli_original_animals_birds_3.png	G	0	0	0	131.550860399962	131.750847999938
11922.25	100	73	2	0	46	1	7	8	0	0	0	stim008_stimuli_original_animals_fish_4.png	K	0	0	0	131.950857999967	132.150863899966
12022.25	100	74	2	0	46	2	13	14	0	0	0	stim014_stimuli_original_vehicles_planes_2.png	V	0	0	0	132.350872599985	132.55086879991
12122.25	100	75	2	0	46	3	1	1	0	0	0	stim002_stimuli_original_animals_birds_2.png	B	0	0	0	132.750880999956	132.95087890001
12222.25	100	76	2	0	46	4	4	3	0	0	0	stim005_stimuli_original_animals_fish_1.png	D	0	0	0	133.150890499935	133.350890000002
12322.25	100	77	2	0	46	5	12	11	0	0	0	stim013_stimuli_original_vehicles_planes_1.png	R	0	0	0	133.550902499934	133.750900799991
12422.25	100	78	2	0	46	6	9	12	0	0	0	stim010_stimuli_original_vehicles_boats_2.png	T	0	0	0	133.950912299915	134.150912699988
12522.25	100	79	2	0	46	7	10	0	0	0	0	stim011_stimuli_original_vehicles_boats_3.png	A	0	0	0	134.35092519992	134.550923599978
12622.25	100	80	2	0	46	8	14	5	0	0	0	stim015_stimuli_original_vehicles_planes_3.png	F	0	0	0	134.750938999932	134.950935499975
12722.25	100	81	2	0	46	9	11	15	0	0	0	stim012_stimuli_original_vehicles_boats_4.png	Y	0	0	0	135.150949199917	135.350942899939
12822.25	100	82	2	0	46	10	15	13	1	0	0	stim016_stimuli_original_vehicles_planes_4.png	U	0	0	0	135.550957400003	135.750953199924
12922.25	100	83	2	0	46	11	3	11	0	1	0	stim004_stimuli_original_animals_birds_4.png	R	0	0	0	135.950967199984	136.150966299931
13022.25	100	84	2	0	46	12	15	4	1	0	1	stim016_stimuli_original_vehicles_planes_4.png	E	0	0	0	136.350976099959	136.550975299906
13122.25	100	85	2	0	46	13	0	11	0	1	0	stim001_stimuli_original_animals_birds_1.png	R	d	136.958854999975	1	136.750987599953	136.95098199998
13222.25	100	86	2	0	46	14	5	2	0	0	0	stim006_stimuli_original_animals_fish_2.png	C	0	0	0	137.151026699925	137.351021899958
13322.25	100	87	2	0	46	15	8	7	0	0	0	stim009_stimuli_original_vehicles_boats_1.png	J	0	0	0	137.551020599902	137.751037899987
13422.25	100	88	2	0	46	16	15	9	0	0	0	stim016_stimuli_original_vehicles_planes_4.png	L	0	0	0	137.951043699984	138.151043799939
13522.25	100	89	2	0	46	17	6	10	0	0	0	stim007_stimuli_original_animals_fish_3.png	Q	0	0	0	138.351057599997	138.551059899968
13622.25	100	90	2	0	46	18	10	6	0	0	0	stim011_stimuli_original_vehicles_boats_3.png	G	0	0	0	138.751067999983	138.951032000012
13722.25	100	91	2	0	46	19	9	15	0	0	0	stim010_stimuli_original_vehicles_boats_2.png	Y	0	0	0	139.151077399962	139.351062599919
13822.25	100	92	2	0	46	20	7	8	0	0	0	stim008_stimuli_original_animals_fish_4.png	K	0	0	0	139.551077799988	139.751086100005
13922.25	100	93	2	0	46	21	2	5	0	0	0	stim003_stimuli_original_animals_birds_3.png	F	0	0	0	139.95109769993	140.151089999941
14022.25	100	94	2	0	46	22	11	0	1	0	0	stim012_stimuli_original_vehicles_boats_4.png	A	0	0	0	140.35110989993	140.551113999914
14122.25	100	95	2	0	46	23	4	15	0	1	0	stim005_stimuli_original_animals_fish_1.png	Y	0	0	0	140.751124999952	140.951117799967
14222.25	100	96	2	0	46	24	11	3	1	0	1	stim012_stimuli_original_vehicles_boats_4.png	D	0	0	0	141.151129900012	141.351128399954
14322.25	100	97	2	0	46	25	13	15	0	1	0	stim014_stimuli_original_vehicles_planes_2.png	Y	0	0	0	141.551141100004	141.751143299975
14422.25	100	98	2	0	46	26	15	11	0	0	0	stim016_stimuli_original_vehicles_planes_4.png	R	d	141.943721899996	1	141.951150899986	142.151153199957
14522.25	100	99	2	0	46	27	5	14	0	0	0	stim006_stimuli_original_animals_fish_2.png	V	0	0	0	142.351165600005	142.551161999931
14622.25	100	100	2	0	46	28	0	10	0	0	0	stim001_stimuli_original_animals_birds_1.png	Q	0	0	0	142.751174699981	142.951174999936
14722.25	100	101	2	0	46	29	12	9	0	0	0	stim013_stimuli_original_vehicles_planes_1.png	L	0	0	0	143.151183499955	143.351182300015
14822.25	100	102	2	0	46	30	11	12	0	0	0	stim012_stimuli_original_vehicles_boats_4.png	T	0	0	0	143.551197599969	143.751195599907
14922.25	100	103	2	0	46	31	3	4	0	0	0	stim004_stimuli_original_animals_birds_4.png	E	0	0	0	143.951204599929	144.151199399959
15022.25	100	104	2	0	46	32	1	1	0	0	0	stim002_stimuli_original_animals_birds_2.png	B	0	0	0	144.351217699936	144.551215799991
15122.25	100	105	2	0	46	33	14	13	0	0	0	stim015_stimuli_original_vehicles_planes_3.png	U	0	0	0	144.751236199983	144.951239799964
15222.25	100	106	2	0	46	34	8	7	0	0	0	stim009_stimuli_original_vehicles_boats_1.png	J	0	0	0	145.151236200007	145.351233699941
15322.25	100	107	2	0	46	35	6	2	0	0	0	stim007_stimuli_original_animals_fish_3.png	C	0	0	0	145.551244199974	145.751249499968
16014	100	108	3	1	44	0	13	13	0	0	0	stim014_stimuli_original_vehicles_planes_2.png	U	0	0	0	148.317997499951	148.51800079993
16114	100	109	3	1	44	1	8	9	0	0	0	stim009_stimuli_original_vehicles_boats_1.png	L	0	0	0	148.718011399964	148.918002599967
16214	100	110	3	1	44	2	14	15	0	0	0	stim015_stimuli_original_vehicles_planes_3.png	Y	0	0	0	149.118016999913	149.318014899967
16314	100	111	3	1	44	3	2	12	0	0	0	stim003_stimuli_original_animals_birds_3.png	T	0	0	0	149.518030599924	149.718012599973
16414	100	112	3	1	44	4	11	5	0	0	0	stim012_stimuli_original_vehicles_boats_4.png	F	0	0	0	149.918031099951	150.118015699903
16514	100	113	3	1	44	5	1	2	0	0	0	stim002_stimuli_original_animals_birds_2.png	C	0	0	0	150.318041699938	150.51804190001
16614	100	114	3	1	44	6	7	8	0	1	0	stim008_stimuli_original_animals_fish_4.png	K	0	0	0	150.718056499958	150.918051399989
16714	100	115	3	1	44	7	4	3	0	0	0	stim005_stimuli_original_animals_fish_1.png	D	0	0	0	151.118064199924	151.318070099922
16814	100	116	3	1	44	8	6	8	0	1	1	stim007_stimuli_original_animals_fish_3.png	K	0	0	0	151.518078099936	151.718083999935
16914	100	117	3	1	44	9	7	6	1	0	0	stim008_stimuli_original_animals_fish_4.png	G	d	152.109874799964	1	151.918085899903	152.11808559997
17014	100	118	3	1	44	10	15	1	0	0	0	stim016_stimuli_original_vehicles_planes_4.png	B	0	0	0	152.318108699983	152.518100599991
17114	100	119	3	1	44	11	7	4	1	0	0	stim008_stimuli_original_animals_fish_4.png	E	0	0	0	152.718107099994	152.918105699937
17214	100	120	3	1	44	12	10	11	0	0	0	stim011_stimuli_original_vehicles_boats_3.png	R	0	0	0	153.118115599966	153.318102199933
17314	100	121	3	1	44	13	12	0	0	0	0	stim013_stimuli_original_vehicles_planes_1.png	A	0	0	0	153.518129899981	153.718127299915
17414	100	122	3	1	44	14	5	8	0	0	0	stim006_stimuli_original_animals_fish_2.png	K	0	0	0	153.918128799996	154.11813670001
17514	100	123	3	1	44	15	3	10	0	0	0	stim004_stimuli_original_animals_birds_4.png	Q	0	0	0	154.318176499917	154.518156199949
17614	100	124	3	1	44	16	0	7	0	0	0	stim001_stimuli_original_animals_birds_1.png	J	0	0	0	154.718159599928	154.91816589993
17714	100	125	3	1	44	17	9	14	0	0	0	stim010_stimuli_original_vehicles_boats_2.png	V	0	0	0	155.118171899929	155.31817079999
17814	100	126	3	1	44	18	14	9	0	0	0	stim015_stimuli_original_vehicles_planes_3.png	L	0	0	0	155.51818299992	155.718180799973
17914	100	127	3	1	44	19	7	0	0	0	0	stim008_stimuli_original_animals_fish_4.png	A	0	0	0	155.918191500008	156.118189699948
18014	100	128	3	1	44	20	10	3	0	0	0	stim011_stimuli_original_vehicles_boats_3.png	D	0	0	0	156.318204300012	156.518190299976
18114	100	129	3	1	44	21	8	5	0	0	0	stim009_stimuli_original_vehicles_boats_1.png	F	0	0	0	156.718215500005	156.918221500004
18214	100	130	3	1	44	22	0	12	0	0	0	stim001_stimuli_original_animals_birds_1.png	T	0	0	0	157.118225999991	157.318225599942
18314	100	131	3	1	44	23	11	10	0	0	0	stim012_stimuli_original_vehicles_boats_4.png	Q	0	0	0	157.518239800003	157.718257899978
18414	100	132	3	1	44	24	4	7	0	1	0	stim005_stimuli_original_animals_fish_1.png	J	0	0	0	157.918247099966	158.118245299906
18514	100	133	3	1	44	25	1	15	0	0	0	stim002_stimuli_original_animals_birds_2.png	Y	0	0	0	158.31825729995	158.518255600007
18614	100	134	3	1	44	26	6	7	0	1	1	stim007_stimuli_original_animals_fish_3.png	J	0	0	0	158.718273599981	158.918266599998
18714	100	135	3	1	44	27	8	6	1	0	0	stim009_stimuli_original_vehicles_boats_1.png	G	d	159.310049099964	1	159.118257800001	159.318278999999
18814	100	136	3	1	44	28	3	4	0	0	0	stim004_stimuli_original_animals_birds_4.png	E	0	0	0	159.518290599925	159.718279399909
18914	100	137	3	1	44	29	8	7	1	0	0	stim009_stimuli_original_vehicles_boats_1.png	J	0	0	0	159.918300199904	160.118301899987
19014	100	138	3	1	44	30	2	1	0	0	0	stim003_stimuli_original_animals_birds_3.png	B	0	0	0	160.318307399983	160.518315299996
19114	100	139	3	1	44	31	5	11	0	0	0	stim006_stimuli_original_animals_fish_2.png	R	0	0	0	160.718318499974	160.918319299934
19214	100	140	3	1	44	32	12	2	0	0	0	stim013_stimuli_original_vehicles_planes_1.png	C	0	0	0	161.118330399971	161.318321799976
19314	100	141	3	1	44	33	15	14	0	0	0	stim016_stimuli_original_vehicles_planes_4.png	V	0	0	0	161.518341699964	161.718336999998
19414	100	142	3	1	44	34	9	8	0	0	0	stim010_stimuli_original_vehicles_boats_2.png	K	0	0	0	161.918348299921	162.118351200013
19514	100	143	3	1	44	35	13	13	0	0	0	stim014_stimuli_original_vehicles_planes_2.png	U	0	0	0	162.318356500007	162.518369999947
20068.25	100	144	4	0	32	0	2	2	0	0	0	stim003_stimuli_original_animals_birds_3.png	C	d	164.726854700013	0	164.535068499972	164.735065699904
20168.25	100	145	4	0	32	1	15	4	0	0	0	stim016_stimuli_original_vehicles_planes_4.png	E	0	0	0	164.935076699941	165.135073399986
20268.25	100	146	4	0	32	2	6	3	0	0	0	stim007_stimuli_original_animals_fish_3.png	D	0	0	0	165.335084299906	165.535085099982
20368.25	100	147	4	0	32	3	9	15	0	0	0	stim010_stimuli_original_vehicles_boats_2.png	Y	0	0	0	165.735098199919	165.935100300005
20468.25	100	148	4	0	32	4	14	0	0	0	0	stim015_stimuli_original_vehicles_planes_3.png	A	0	0	0	166.135107900016	166.335110299988
20568.25	100	149	4	0	32	5	13	11	1	0	0	stim014_stimuli_original_vehicles_planes_2.png	R	0	0	0	166.535107199918	166.73511759995
20668.25	100	150	4	0	32	6	4	12	0	0	0	stim005_stimuli_original_animals_fish_1.png	T	0	0	0	166.935130400001	167.135128699942
20768.25	100	151	4	0	32	7	13	1	1	0	1	stim014_stimuli_original_vehicles_planes_2.png	B	0	0	0	167.33513859997	167.535148900002
20868.25	100	152	4	0	32	8	5	7	0	0	0	stim006_stimuli_original_animals_fish_2.png	J	d	167.926942499937	1	167.735147699947	167.935148599907
20968.25	100	153	4	0	32	9	10	10	0	0	0	stim011_stimuli_original_vehicles_boats_3.png	Q	0	0	0	168.135159199941	168.335165099939
21068.25	100	154	4	0	32	10	8	3	0	1	0	stim009_stimuli_original_vehicles_boats_1.png	D	0	0	0	168.535169499926	168.735171000008
21168.25	100	155	4	0	32	11	0	9	0	0	0	stim001_stimuli_original_animals_birds_1.png	L	0	0	0	168.935180699918	169.135180999991
21268.25	100	156	4	0	32	12	3	3	0	1	0	stim004_stimuli_original_animals_birds_4.png	D	0	0	0	169.335195899941	169.535192299983
21368.25	100	157	4	0	32	13	13	13	0	0	0	stim014_stimuli_original_vehicles_planes_2.png	U	0	0	0	169.735203599907	169.935201899963
21468.25	100	158	4	0	32	14	12	6	0	0	0	stim013_stimuli_original_vehicles_planes_1.png	G	d	170.127750999993	0	170.135217399918	170.335214599967
21568.25	100	159	4	0	32	15	7	14	0	0	0	stim008_stimuli_original_animals_fish_4.png	V	0	0	0	170.535227000015	170.735227699974
21668.25	100	160	4	0	32	16	1	8	0	0	0	stim002_stimuli_original_animals_birds_2.png	K	0	0	0	170.935250799987	171.135235599941
21768.25	100	161	4	0	32	17	11	5	0	0	0	stim012_stimuli_original_vehicles_boats_4.png	F	0	0	0	171.335247099982	171.535246299929
21868.25	100	162	4	0	32	18	5	11	0	0	0	stim006_stimuli_original_animals_fish_2.png	R	0	0	0	171.735259399982	171.93525739992
21968.25	100	163	4	0	32	19	8	1	0	0	0	stim009_stimuli_original_vehicles_boats_1.png	B	0	0	0	172.135269699967	172.335268499912
22068.25	100	164	4	0	32	20	14	7	0	0	0	stim015_stimuli_original_vehicles_planes_3.png	J	0	0	0	172.535277799936	172.73527830001
22168.25	100	165	4	0	32	21	6	12	0	0	0	stim007_stimuli_original_animals_fish_3.png	T	0	0	0	172.935290199937	173.13528789999
22268.25	100	166	4	0	32	22	13	13	0	0	0	stim014_stimuli_original_vehicles_planes_2.png	U	0	0	0	173.335300999926	173.535300799995
22368.25	100	167	4	0	32	23	3	3	1	0	0	stim004_stimuli_original_animals_birds_4.png	D	0	0	0	173.735310299904	173.935309099965
22468.25	100	168	4	0	32	24	9	0	0	0	0	stim010_stimuli_original_vehicles_boats_2.png	A	0	0	0	174.135327499942	174.335319699952
22568.25	100	169	4	0	32	25	3	8	1	0	1	stim004_stimuli_original_animals_birds_4.png	K	0	0	0	174.535334699904	174.735332799959
22668.25	100	170	4	0	32	26	10	10	0	0	0	stim011_stimuli_original_vehicles_boats_3.png	Q	0	0	0	174.93534299999	175.135342099937
22768.25	100	171	4	0	32	27	7	5	0	0	0	stim008_stimuli_original_animals_fish_4.png	F	0	0	0	175.335356399999	175.535354399937
22868.25	100	172	4	0	32	28	1	13	0	1	0	stim002_stimuli_original_animals_birds_2.png	U	d	175.727925899904	1	175.735403999919	175.93536309991
22968.25	100	173	4	0	32	29	12	4	0	0	0	stim013_stimuli_original_vehicles_planes_1.png	E	0	0	0	176.135372199933	176.335376899922
23068.25	100	174	4	0	32	30	11	13	0	1	0	stim012_stimuli_original_vehicles_boats_4.png	U	0	0	0	176.535413899925	176.735418799915
23168.25	100	175	4	0	32	31	0	14	0	0	0	stim001_stimuli_original_animals_birds_1.png	V	0	0	0	176.935424399911	177.135425199987
23268.25	100	176	4	0	32	32	15	9	0	0	0	stim016_stimuli_original_vehicles_planes_4.png	L	0	0	0	177.335433500004	177.535417399951
23368.25	100	177	4	0	32	33	3	6	0	0	0	stim004_stimuli_original_animals_birds_4.png	G	0	0	0	177.735443399986	177.935417699977
23468.25	100	178	4	0	32	34	4	15	0	0	0	stim005_stimuli_original_animals_fish_1.png	Y	0	0	0	178.135428700014	178.335427199956
23568.25	100	179	4	0	32	35	2	2	0	0	0	stim003_stimuli_original_animals_birds_3.png	C	0	0	0	178.535441100015	178.735440599965
25368.5	100	180	5	1	13	0	7	13	0	0	0	stim008_stimuli_original_animals_fish_4.png	U	0	0	0	185.735661999905	185.935659299954
25468.5	100	181	5	1	13	1	6	8	0	0	0	stim007_stimuli_original_animals_fish_3.png	K	0	0	0	186.135668099974	186.335669999942
25568.5	100	182	5	1	13	2	11	11	0	0	0	stim012_stimuli_original_vehicles_boats_4.png	R	0	0	0	186.535692499951	186.735678499914
25668.5	100	183	5	1	13	3	9	2	0	0	0	stim010_stimuli_original_vehicles_boats_2.png	C	0	0	0	186.93569720001	187.135689799907
25768.5	100	184	5	1	13	4	14	1	0	0	0	stim015_stimuli_original_vehicles_planes_3.png	B	0	0	0	187.335676099989	187.535667699995
25868.5	100	185	5	1	13	5	10	5	1	1	0	stim011_stimuli_original_vehicles_boats_3.png	F	0	0	0	187.735698399949	187.935683499905
25968.5	100	186	5	1	13	6	2	10	0	0	0	stim003_stimuli_original_animals_birds_3.png	Q	0	0	0	188.135693199933	188.335691199987
26068.5	100	187	5	1	13	7	10	5	1	1	1	stim011_stimuli_original_vehicles_boats_3.png	F	0	0	0	188.535710799973	188.735704099992
26168.5	100	188	5	1	13	8	12	15	0	0	0	stim013_stimuli_original_vehicles_planes_1.png	Y	0	0	0	188.935717699933	189.135713299969
26268.5	100	189	5	1	13	9	13	9	0	0	0	stim014_stimuli_original_vehicles_planes_2.png	L	0	0	0	189.33572480001	189.535728999996
26368.5	100	190	5	1	13	10	3	5	0	0	0	stim004_stimuli_original_animals_birds_4.png	F	0	0	0	189.735738099902	189.935764699942
26468.5	100	191	5	1	13	11	4	14	0	0	0	stim005_stimuli_original_animals_fish_1.png	V	0	0	0	190.135746999993	190.335747399949
26568.5	100	192	5	1	13	12	10	0	0	0	0	stim011_stimuli_original_vehicles_boats_3.png	A	0	0	0	190.535792400013	190.735786499921
26668.5	100	193	5	1	13	13	1	7	0	0	0	stim002_stimuli_original_animals_birds_2.png	J	0	0	0	190.935797399958	191.135795800015
26768.5	100	194	5	1	13	14	15	6	0	0	0	stim016_stimuli_original_vehicles_planes_4.png	G	0	0	0	191.335808099946	191.535813999944
26868.5	100	195	5	1	13	15	0	3	0	0	0	stim001_stimuli_original_animals_birds_1.png	D	0	0	0	191.735818099929	191.935815899982
26968.5	100	196	5	1	13	16	5	12	0	0	0	stim006_stimuli_original_animals_fish_2.png	T	0	0	0	192.135818399955	192.335829899996
27068.5	100	197	5	1	13	17	8	4	0	0	0	stim009_stimuli_original_vehicles_boats_1.png	E	0	0	0	192.535852300003	192.735842499998
27168.5	100	198	5	1	13	18	4	8	0	0	0	stim005_stimuli_original_animals_fish_1.png	K	0	0	0	192.935849600006	193.135844799923
27268.5	100	199	5	1	13	19	12	5	0	0	0	stim013_stimuli_original_vehicles_planes_1.png	F	0	0	0	193.335845199996	193.53586449998
27368.5	100	200	5	1	13	20	3	0	0	0	0	stim004_stimuli_original_animals_birds_4.png	A	0	0	0	193.735874000005	193.935870499932
27468.5	100	201	5	1	13	21	6	15	0	0	0	stim007_stimuli_original_animals_fish_3.png	Y	0	0	0	194.135885299998	194.335856799968
27568.5	100	202	5	1	13	22	7	1	0	0	0	stim008_stimuli_original_animals_fish_4.png	B	0	0	0	194.535873199929	194.735876599909
27668.5	100	203	5	1	13	23	0	10	0	0	0	stim001_stimuli_original_animals_birds_1.png	Q	0	0	0	194.935878199991	195.135889799916
27768.5	100	204	5	1	13	24	14	4	0	0	0	stim015_stimuli_original_vehicles_planes_3.png	E	0	0	0	195.335889299982	195.535893199965
27868.5	100	205	5	1	13	25	5	3	0	0	0	stim006_stimuli_original_animals_fish_2.png	D	0	0	0	195.735903399996	195.935897599906
27968.5	100	206	5	1	13	26	9	13	0	0	0	stim010_stimuli_original_vehicles_boats_2.png	U	0	0	0	196.135910599958	196.335909599904
28068.5	100	207	5	1	13	27	15	12	0	0	0	stim016_stimuli_original_vehicles_planes_4.png	T	0	0	0	196.535929800011	196.735919600003
28168.5	100	208	5	1	13	28	5	10	1	1	0	stim006_stimuli_original_animals_fish_2.png	Q	d	196.928517799941	0	196.935932799941	197.135932500008
28268.5	100	209	5	1	13	29	10	2	0	0	0	stim011_stimuli_original_vehicles_boats_3.png	C	0	0	0	197.335975899943	197.535944000003
28368.5	100	210	5	1	13	30	5	10	1	1	1	stim006_stimuli_original_animals_fish_2.png	Q	0	0	0	197.735952699906	197.935980299953
28468.5	100	211	5	1	13	31	1	14	0	0	0	stim002_stimuli_original_animals_birds_2.png	V	0	0	0	198.135965099907	198.335961799952
28568.5	100	212	5	1	13	32	2	9	0	0	0	stim003_stimuli_original_animals_birds_3.png	L	0	0	0	198.535980899935	198.735984399915
28668.5	100	213	5	1	13	33	11	11	0	0	0	stim012_stimuli_original_vehicles_boats_4.png	R	0	0	0	198.935990999918	199.135988799972
28768.5	100	214	5	1	13	34	8	6	0	0	0	stim009_stimuli_original_vehicles_boats_1.png	G	0	0	0	199.33600469993	199.536013899953
28868.5	100	215	5	1	13	35	13	7	0	0	0	stim014_stimuli_original_vehicles_planes_2.png	J	0	0	0	199.736018799944	199.93604489998
29356	100	216	6	0	22	0	9	14	0	0	0	stim010_stimuli_original_vehicles_boats_2.png	V	d	201.678759899922	0	201.686060499982	201.88605709991
29456	100	217	6	0	22	1	3	11	0	0	0	stim004_stimuli_original_animals_birds_4.png	R	0	0	0	202.08607249998	202.28607329994
29556	100	218	6	0	22	2	15	1	0	0	0	stim016_stimuli_original_vehicles_planes_4.png	B	0	0	0	202.486102900002	202.686081399908
29656	100	219	6	0	22	3	5	8	0	0	0	stim006_stimuli_original_animals_fish_2.png	K	0	0	0	202.886091199936	203.086092100013
29756	100	220	6	0	22	4	0	7	1	0	0	stim001_stimuli_original_animals_birds_1.png	J	0	0	0	203.286101699923	203.486101099988
29856	100	221	6	0	22	5	14	5	0	0	0	stim015_stimuli_original_vehicles_planes_3.png	F	0	0	0	203.686115799937	203.886114399997
29956	100	222	6	0	22	6	0	3	1	1	1	stim001_stimuli_original_animals_birds_1.png	D	0	0	0	204.086124999914	204.286123699974
30056	100	223	6	0	22	7	6	6	0	0	0	stim007_stimuli_original_animals_fish_3.png	G	0	0	0	204.486130699981	204.68613269995
30156	100	224	6	0	22	8	12	3	0	1	0	stim013_stimuli_original_vehicles_planes_1.png	D	0	0	0	204.886159899994	205.086144699948
30256	100	225	6	0	22	9	10	4	0	0	0	stim011_stimuli_original_vehicles_boats_3.png	E	d	205.477942999918	1	205.286155399983	205.486156499945
30356	100	226	6	0	22	10	1	10	0	0	0	stim002_stimuli_original_animals_birds_2.png	Q	0	0	0	205.686170300003	205.886165699922
30456	100	227	6	0	22	11	2	13	0	0	0	stim003_stimuli_original_animals_birds_3.png	U	0	0	0	206.086190599948	206.286175599904
30556	100	228	6	0	22	12	0	9	0	0	0	stim001_stimuli_original_animals_birds_1.png	L	0	0	0	206.48618909996	206.686187899904
30656	100	229	6	0	22	13	8	0	0	0	0	stim009_stimuli_original_vehicles_boats_1.png	A	0	0	0	206.886201399961	207.086222399957
30756	100	230	6	0	22	14	4	12	0	0	0	stim005_stimuli_original_animals_fish_1.png	T	d	207.478032200015	0	207.286209399928	207.486215899931
30856	100	231	6	0	22	15	11	15	0	0	0	stim012_stimuli_original_vehicles_boats_4.png	Y	0	0	0	207.686257899972	207.886221399996
30956	100	232	6	0	22	16	7	3	0	0	0	stim008_stimuli_original_animals_fish_4.png	D	0	0	0	208.086230299901	208.28622879996
31056	100	233	6	0	22	17	13	2	0	0	0	stim014_stimuli_original_vehicles_planes_2.png	C	0	0	0	208.486256000004	208.686250699917
31156	100	234	6	0	22	18	2	13	0	0	0	stim003_stimuli_original_animals_birds_3.png	U	0	0	0	208.886253200006	209.086252299952
31256	100	235	6	0	22	19	3	7	0	0	0	stim004_stimuli_original_animals_birds_4.png	J	0	0	0	209.286294899997	209.486263499944
31356	100	236	6	0	22	20	15	11	0	0	0	stim016_stimuli_original_vehicles_planes_4.png	R	0	0	0	209.68631099991	209.886277199956
31456	100	237	6	0	22	21	12	4	0	0	0	stim013_stimuli_original_vehicles_planes_1.png	E	0	0	0	210.086283399956	210.286305999965
31556	100	238	6	0	22	22	0	8	0	0	0	stim001_stimuli_original_animals_birds_1.png	K	0	0	0	210.486307699932	210.686306699994
31656	100	239	6	0	22	23	9	0	0	0	0	stim010_stimuli_original_vehicles_boats_2.png	A	0	0	0	210.88630709995	211.086303999997
31756	100	240	6	0	22	24	13	2	0	0	0	stim014_stimuli_original_vehicles_planes_2.png	C	0	0	0	211.286315199919	211.486317200004
31856	100	241	6	0	22	25	10	1	0	0	0	stim011_stimuli_original_vehicles_boats_3.png	B	0	0	0	211.68632619991	211.886327299988
31956	100	242	6	0	22	26	4	10	0	0	0	stim005_stimuli_original_animals_fish_1.png	Q	0	0	0	212.086335900007	212.286364099942
32056	100	243	6	0	22	27	3	12	1	0	0	stim004_stimuli_original_animals_birds_4.png	T	0	0	0	212.486346999998	212.686347199953
32156	100	244	6	0	22	28	6	6	0	0	0	stim007_stimuli_original_animals_fish_3.png	G	0	0	0	212.886370599968	213.086368299904
32256	100	245	6	0	22	29	3	0	1	1	1	stim004_stimuli_original_animals_birds_4.png	A	d	213.278931899928	1	213.286374299903	213.486367699923
32356	100	246	6	0	22	30	5	14	0	0	0	stim006_stimuli_original_animals_fish_2.png	V	0	0	0	213.686379599967	213.886380999931
32456	100	247	6	0	22	31	7	0	0	1	0	stim008_stimuli_original_animals_fish_4.png	A	0	0	0	214.086395599996	214.286389999907
32556	100	248	6	0	22	32	8	5	0	0	0	stim009_stimuli_original_vehicles_boats_1.png	F	d	214.678226499935	1	214.486442799913	214.686401300016
32656	100	249	6	0	22	33	1	15	0	0	0	stim002_stimuli_original_animals_birds_2.png	Y	0	0	0	214.886414599954	215.086411900003
32756	100	250	6	0	22	34	11	3	0	0	0	stim012_stimuli_original_vehicles_boats_4.png	D	0	0	0	215.28642369993	215.486427399912
32856	100	251	6	0	22	35	14	9	0	0	0	stim015_stimuli_original_vehicles_planes_3.png	L	0	0	0	215.686436299933	215.886435499997
33464.5	100	252	7	1	47	0	7	6	0	0	0	stim008_stimuli_original_animals_fish_4.png	G	0	0	0	218.119840299943	218.319830199936
33564.5	100	253	7	1	47	1	8	10	0	0	0	stim009_stimuli_original_vehicles_boats_1.png	Q	0	0	0	218.519845200004	218.71984419995
33664.5	100	254	7	1	47	2	2	15	0	0	0	stim003_stimuli_original_animals_birds_3.png	Y	0	0	0	218.919855699991	219.119855799945
33764.5	100	255	7	1	47	3	9	13	0	0	0	stim010_stimuli_original_vehicles_boats_2.png	U	0	0	0	219.319864399964	219.519865199924
33864.5	100	256	7	1	47	4	15	2	0	0	0	stim016_stimuli_original_vehicles_planes_4.png	C	0	0	0	219.719902399927	219.919901899993
33964.5	100	257	7	1	47	5	4	9	0	1	0	stim005_stimuli_original_animals_fish_1.png	L	0	0	0	220.119917999953	220.31991239998
34064.5	100	258	7	1	47	6	5	12	0	0	0	stim006_stimuli_original_animals_fish_2.png	T	0	0	0	220.519926999928	220.719937899965
34164.5	100	259	7	1	47	7	7	9	1	1	1	stim008_stimuli_original_animals_fish_4.png	L	0	0	0	220.919937399914	221.119933699956
34264.5	100	260	7	1	47	8	11	3	0	0	0	stim012_stimuli_original_vehicles_boats_4.png	D	0	0	0	221.319945199997	221.519942799932
34364.5	100	261	7	1	47	9	7	14	1	0	0	stim008_stimuli_original_animals_fish_4.png	V	0	0	0	221.719954499975	221.919953899924
34464.5	100	262	7	1	47	10	10	1	0	0	0	stim011_stimuli_original_vehicles_boats_3.png	B	0	0	0	222.119971900014	222.319991900004
34564.5	100	263	7	1	47	11	1	7	0	0	0	stim002_stimuli_original_animals_birds_2.png	J	d	222.711797399912	1	222.519976899959	222.719973600004
34664.5	100	264	7	1	47	12	14	9	0	0	0	stim015_stimuli_original_vehicles_planes_3.png	L	0	0	0	222.919990299968	223.119991199928
34764.5	100	265	7	1	47	13	3	0	0	0	0	stim004_stimuli_original_animals_birds_4.png	A	0	0	0	223.320009299903	223.520007099956
34864.5	100	266	7	1	47	14	13	5	0	0	0	stim014_stimuli_original_vehicles_planes_2.png	F	0	0	0	223.720024899929	223.919996700017
34964.5	100	267	7	1	47	15	6	11	0	0	0	stim007_stimuli_original_animals_fish_3.png	R	0	0	0	224.119993199944	224.319993899902
35064.5	100	268	7	1	47	16	0	8	0	0	0	stim001_stimuli_original_animals_birds_1.png	K	0	0	0	224.520007499959	224.720004900009
35164.5	100	269	7	1	47	17	12	4	0	0	0	stim013_stimuli_original_vehicles_planes_1.png	E	0	0	0	224.920047699939	225.120013999986
35264.5	100	270	7	1	47	18	4	12	0	0	0	stim005_stimuli_original_animals_fish_1.png	T	0	0	0	225.320039799903	225.520040099975
35364.5	100	271	7	1	47	19	8	0	0	0	0	stim009_stimuli_original_vehicles_boats_1.png	A	0	0	0	225.720038499916	225.92003899999
35464.5	100	272	7	1	47	20	11	6	0	0	0	stim012_stimuli_original_vehicles_boats_4.png	G	0	0	0	226.120046399999	226.320049299975
35564.5	100	273	7	1	47	21	5	13	0	0	0	stim006_stimuli_original_animals_fish_2.png	U	0	0	0	226.520058399998	226.720060499967
35664.5	100	274	7	1	47	22	0	3	0	0	0	stim001_stimuli_original_animals_birds_1.png	D	0	0	0	226.920071100001	227.120070999954
35764.5	100	275	7	1	47	23	9	14	0	0	0	stim010_stimuli_original_vehicles_boats_2.png	V	0	0	0	227.320078899967	227.520118199987
35864.5	100	276	7	1	47	24	7	1	0	0	0	stim008_stimuli_original_animals_fish_4.png	B	0	0	0	227.720091699972	227.920090599917
35964.5	100	277	7	1	47	25	1	10	0	0	0	stim002_stimuli_original_animals_birds_2.png	Q	0	0	0	228.120129399933	228.320100899902
36064.5	100	278	7	1	47	26	14	7	0	1	0	stim015_stimuli_original_vehicles_planes_3.png	J	0	0	0	228.520112199942	228.720112800016
36164.5	100	279	7	1	47	27	3	11	0	0	0	stim004_stimuli_original_animals_birds_4.png	R	0	0	0	228.920123799937	229.120122299995
36264.5	100	280	7	1	47	28	9	7	1	1	1	stim010_stimuli_original_vehicles_boats_2.png	J	0	0	0	229.320132699911	229.520133499987
36364.5	100	281	7	1	47	29	12	5	0	0	0	stim013_stimuli_original_vehicles_planes_1.png	F	0	0	0	229.72014609992	229.920149600017
36464.5	100	282	7	1	47	30	9	4	1	0	0	stim010_stimuli_original_vehicles_boats_2.png	E	0	0	0	230.120189399924	230.320181399933
36564.5	100	283	7	1	47	31	2	15	0	0	0	stim003_stimuli_original_animals_birds_3.png	Y	d	230.512765899999	1	230.520197000005	230.720173900016
36664.5	100	284	7	1	47	32	13	9	0	0	0	stim014_stimuli_original_vehicles_planes_2.png	L	0	0	0	230.920204499969	231.12020539993
36764.5	100	285	7	1	47	33	15	2	0	0	0	stim016_stimuli_original_vehicles_planes_4.png	C	0	0	0	231.320216199965	231.520213100011
36864.5	100	286	7	1	47	34	10	8	0	0	0	stim011_stimuli_original_vehicles_boats_3.png	K	0	0	0	231.720228099963	231.920223499998
36964.5	100	287	7	1	47	35	6	7	0	0	0	stim007_stimuli_original_animals_fish_3.png	J	0	0	0	232.120234199916	232.320240399917
37806.25	100	288	8	0	4	0	14	6	0	0	0	stim015_stimuli_original_vehicles_planes_3.png	G	0	0	0	235.486985799973	235.686989399954
37906.25	100	289	8	0	4	1	1	13	0	0	0	stim002_stimuli_original_animals_birds_2.png	U	0	0	0	235.887001700001	236.087002799963
38006.25	100	290	8	0	4	2	3	0	0	0	0	stim004_stimuli_original_animals_birds_4.png	A	0	0	0	236.287011099979	236.48701079993
38106.25	100	291	8	0	4	3	0	12	0	0	0	stim001_stimuli_original_animals_birds_1.png	T	0	0	0	236.687023199978	236.887020999915
38206.25	100	292	8	0	4	4	10	3	1	0	0	stim011_stimuli_original_vehicles_boats_3.png	D	0	0	0	237.087039900012	237.287033999921
38306.25	100	293	8	0	4	5	5	2	0	0	0	stim006_stimuli_original_animals_fish_2.png	C	0	0	0	237.487061099964	237.687049399945
38406.25	100	294	8	0	4	6	10	8	1	0	1	stim011_stimuli_original_vehicles_boats_3.png	K	0	0	0	237.887055699946	238.08705229999
38506.25	100	295	8	0	4	7	8	15	0	0	0	stim009_stimuli_original_vehicles_boats_1.png	Y	0	0	0	238.287064699922	238.487064999994
38606.25	100	296	8	0	4	8	2	4	0	0	0	stim003_stimuli_original_animals_birds_3.png	E	0	0	0	238.687080299947	238.887074199971
38706.25	100	297	8	0	4	9	15	9	0	0	0	stim016_stimuli_original_vehicles_planes_4.png	L	0	0	0	239.08708540001	239.287088099984
38806.25	100	298	8	0	4	10	11	7	0	0	0	stim012_stimuli_original_vehicles_boats_4.png	J	0	0	0	239.487098000012	239.687086999998
38906.25	100	299	8	0	4	11	13	11	0	0	0	stim014_stimuli_original_vehicles_planes_2.png	R	0	0	0	239.887108199997	240.087113999994
39006.25	100	300	8	0	4	12	10	4	0	1	0	stim011_stimuli_original_vehicles_boats_3.png	E	0	0	0	240.287119899993	240.48711769993
39106.25	100	301	8	0	4	13	6	14	0	0	0	stim007_stimuli_original_animals_fish_3.png	V	0	0	0	240.687129699974	240.887128199916
39206.25	100	302	8	0	4	14	4	4	0	1	0	stim005_stimuli_original_animals_fish_1.png	E	0	0	0	241.087144599995	241.287142899935
39306.25	100	303	8	0	4	15	9	1	0	0	0	stim010_stimuli_original_vehicles_boats_2.png	B	d	241.479749099934	0	241.487156299991	241.687150600017
39406.25	100	304	8	0	4	16	7	5	0	0	0	stim008_stimuli_original_animals_fish_4.png	F	0	0	0	241.887172099901	242.087163399905
39506.25	100	305	8	0	4	17	12	10	0	0	0	stim013_stimuli_original_vehicles_planes_1.png	Q	0	0	0	242.28717539995	242.487198399962
39606.25	100	306	8	0	4	18	10	12	0	0	0	stim011_stimuli_original_vehicles_boats_3.png	T	0	0	0	242.687190099969	242.887186200009
39706.25	100	307	8	0	4	19	5	7	0	0	0	stim006_stimuli_original_animals_fish_2.png	J	0	0	0	243.087194799911	243.287194999983
39806.25	100	308	8	0	4	20	1	9	0	0	0	stim002_stimuli_original_animals_birds_2.png	L	0	0	0	243.487210499938	243.687205099966
39906.25	100	309	8	0	4	21	4	4	1	0	0	stim005_stimuli_original_animals_fish_1.png	E	0	0	0	243.887214699993	244.087216599961
40006.25	100	310	8	0	4	22	14	6	0	0	0	stim015_stimuli_original_vehicles_planes_3.png	G	0	0	0	244.287228700006	244.487230499974
40106.25	100	311	8	0	4	23	4	10	1	0	1	stim005_stimuli_original_animals_fish_1.png	Q	0	0	0	244.687213399913	244.887223699945
40206.25	100	312	8	0	4	24	11	13	0	0	0	stim012_stimuli_original_vehicles_boats_4.png	U	0	0	0	245.087225899915	245.287220799946
40306.25	100	313	8	0	4	25	7	11	0	0	0	stim008_stimuli_original_animals_fish_4.png	R	0	0	0	245.4872645	245.687233199948
40406.25	100	314	8	0	4	26	9	15	0	0	0	stim010_stimuli_original_vehicles_boats_2.png	Y	0	0	0	245.887241499964	246.08724309993
40506.25	100	315	8	0	4	27	4	2	0	0	0	stim005_stimuli_original_animals_fish_1.png	C	0	0	0	246.287254999974	246.487254899926
40606.25	100	316	8	0	4	28	15	8	0	0	0	stim016_stimuli_original_vehicles_planes_4.png	K	0	0	0	246.68726799998	246.887263999903
40706.25	100	317	8	0	4	29	8	10	0	1	0	stim009_stimuli_original_vehicles_boats_1.png	Q	0	0	0	247.087279199972	247.287276000017
40806.25	100	318	8	0	4	30	2	5	0	0	0	stim003_stimuli_original_animals_birds_3.png	F	0	0	0	247.487305499963	247.687286300003
40906.25	100	319	8	0	4	31	3	10	0	1	0	stim004_stimuli_original_animals_birds_4.png	Q	d	248.079087899998	0	247.887295099907	248.087317399913
41006.25	100	320	8	0	4	32	12	0	0	0	0	stim013_stimuli_original_vehicles_planes_1.png	A	0	0	0	248.287307499908	248.487307699979
41106.25	100	321	8	0	4	33	0	3	0	0	0	stim001_stimuli_original_animals_birds_1.png	D	0	0	0	248.687320199911	248.887317699962
41206.25	100	322	8	0	4	34	13	1	0	0	0	stim014_stimuli_original_vehicles_planes_2.png	B	0	0	0	249.087329800008	249.287330299965
41306.25	100	323	8	0	4	35	6	14	0	0	0	stim007_stimuli_original_animals_fish_3.png	V	0	0	0	249.487340199994	249.687351699919
43427.25	100	324	9	1	43	0	2	7	0	0	0	stim003_stimuli_original_animals_birds_3.png	J	0	0	0	257.970930099953	258.170908099972
43527.25	100	325	9	1	43	1	9	13	0	0	0	stim010_stimuli_original_vehicles_boats_2.png	U	0	0	0	258.370938999928	258.570919899968
43627.25	100	326	9	1	43	2	14	10	0	0	0	stim015_stimuli_original_vehicles_planes_3.png	Q	0	0	0	258.770943899988	258.970944699948
43727.25	100	327	9	1	43	3	15	14	0	0	0	stim016_stimuli_original_vehicles_planes_4.png	V	0	0	0	259.170960599906	259.370957599953
43827.25	100	328	9	1	43	4	8	9	0	0	0	stim009_stimuli_original_vehicles_boats_1.png	L	0	0	0	259.570970200002	259.770970299956
43927.25	100	329	9	1	43	5	4	2	0	0	0	stim005_stimuli_original_animals_fish_1.png	C	0	0	0	259.970979299978	260.170964699937
44027.25	100	330	9	1	43	6	11	11	0	1	0	stim012_stimuli_original_vehicles_boats_4.png	R	0	0	0	260.370990299969	260.57098999992
44127.25	100	331	9	1	43	7	12	6	1	0	0	stim013_stimuli_original_vehicles_planes_1.png	G	0	0	0	260.771005699993	260.971002499922
44227.25	100	332	9	1	43	8	1	11	0	1	1	stim002_stimuli_original_animals_birds_2.png	R	0	0	0	261.171030599973	261.371012399904
44327.25	100	333	9	1	43	9	12	1	1	0	0	stim013_stimuli_original_vehicles_planes_1.png	B	0	0	0	261.571022799937	261.771024399903
44427.25	100	334	9	1	43	10	5	0	0	0	0	stim006_stimuli_original_animals_fish_2.png	A	0	0	0	261.971017399919	262.171055899933
44527.25	100	335	9	1	43	11	7	3	0	0	0	stim008_stimuli_original_animals_fish_4.png	D	0	0	0	262.371045399923	262.571045699995
44627.25	100	336	9	1	43	12	3	11	0	0	0	stim004_stimuli_original_animals_birds_4.png	R	0	0	0	262.771056999918	262.971052499954
44727.25	100	337	9	1	43	13	0	12	0	0	0	stim001_stimuli_original_animals_birds_1.png	T	0	0	0	263.171065100003	263.371056000004
44827.25	100	338	9	1	43	14	12	5	0	0	0	stim013_stimuli_original_vehicles_planes_1.png	F	d	263.56366929994	0	263.571077100001	263.771075799945
44927.25	100	339	9	1	43	15	13	4	0	0	0	stim014_stimuli_original_vehicles_planes_2.png	E	0	0	0	263.971081899945	264.171087699942
45027.25	100	340	9	1	43	16	10	15	0	0	0	stim011_stimuli_original_vehicles_boats_3.png	Y	d	264.363666599966	0	264.371100399992	264.571099899942
45127.25	100	341	9	1	43	17	6	8	0	0	0	stim007_stimuli_original_animals_fish_3.png	K	0	0	0	264.77111099998	264.971107199905
45227.25	100	342	9	1	43	18	8	6	0	0	0	stim009_stimuli_original_vehicles_boats_1.png	G	0	0	0	265.171120699961	265.371123699937
45327.25	100	343	9	1	43	19	15	10	0	0	0	stim016_stimuli_original_vehicles_planes_4.png	Q	0	0	0	265.571132299956	265.771128399996
45427.25	100	344	9	1	43	20	4	13	0	0	0	stim005_stimuli_original_animals_fish_1.png	U	0	0	0	265.971144199953	266.1711412
45527.25	100	345	9	1	43	21	5	12	0	0	0	stim006_stimuli_original_animals_fish_2.png	T	0	0	0	266.371153699933	266.571148799965
45627.25	100	346	9	1	43	22	12	0	0	0	0	stim013_stimuli_original_vehicles_planes_1.png	A	0	0	0	266.771163799916	266.971161399968
45727.25	100	347	9	1	43	23	11	3	0	0	0	stim012_stimuli_original_vehicles_boats_4.png	D	0	0	0	267.171171900001	267.371168999933
45827.25	100	348	9	1	43	24	3	7	0	0	0	stim004_stimuli_original_animals_birds_4.png	J	0	0	0	267.571184100001	267.771184299956
45927.25	100	349	9	1	43	25	0	5	0	0	0	stim001_stimuli_original_animals_birds_1.png	F	0	0	0	267.971194799989	268.171194999944
46027.25	100	350	9	1	43	26	1	12	0	1	0	stim002_stimuli_original_animals_birds_2.png	T	0	0	0	268.371213699924	268.571187499911
46127.25	100	351	9	1	43	27	11	1	1	0	0	stim012_stimuli_original_vehicles_boats_4.png	B	0	0	0	268.771215199959	268.971215299913
46227.25	100	352	9	1	43	28	6	12	0	1	1	stim007_stimuli_original_animals_fish_3.png	T	0	0	0	269.17122899997	269.371224700008
46327.25	100	353	9	1	43	29	11	11	1	0	0	stim012_stimuli_original_vehicles_boats_4.png	R	0	0	0	269.571239599958	269.771234199987
46427.25	100	354	9	1	43	30	2	4	0	0	0	stim003_stimuli_original_animals_birds_3.png	E	0	0	0	269.97124679992	270.171242799959
46527.25	100	355	9	1	43	31	9	8	0	0	0	stim010_stimuli_original_vehicles_boats_2.png	K	0	0	0	270.371268699993	270.571263699909
46627.25	100	356	9	1	43	32	14	15	0	0	0	stim015_stimuli_original_vehicles_planes_3.png	Y	0	0	0	270.771278399974	270.97127390001
46727.25	100	357	9	1	43	33	10	14	0	0	0	stim011_stimuli_original_vehicles_boats_3.png	V	0	0	0	271.17130139994	271.371284099994
46827.25	100	358	9	1	43	34	13	9	0	0	0	stim014_stimuli_original_vehicles_planes_2.png	L	0	0	0	271.571298199939	271.771295599989
46927.25	100	359	9	1	43	35	7	2	0	0	0	stim008_stimuli_original_animals_fish_4.png	C	0	0	0	271.971312899957	272.171312899911
47448	100	360	10	0	20	0	10	4	0	0	0	stim011_stimuli_original_vehicles_boats_3.png	E	0	0	0	274.054671499995	274.254665899905
47548	100	361	10	0	20	1	12	5	0	0	0	stim013_stimuli_original_vehicles_planes_1.png	F	0	0	0	274.454706899938	274.654676500009
47648	100	362	10	0	20	2	3	12	0	0	0	stim004_stimuli_original_animals_birds_4.png	T	d	274.847267900012	0	274.854686399922	275.054703700007
47748	100	363	10	0	20	3	6	11	0	0	0	stim007_stimuli_original_animals_fish_3.png	R	0	0	0	275.254699199926	275.454700800008
47848	100	364	10	0	20	4	7	2	1	0	0	stim008_stimuli_original_animals_fish_4.png	C	0	0	0	275.654709099908	275.854710099986
47948	100	365	10	0	20	5	4	8	0	0	0	stim005_stimuli_original_animals_fish_1.png	K	0	0	0	276.054724599933	276.254719199962
48048	100	366	10	0	20	6	7	13	1	0	1	stim008_stimuli_original_animals_fish_4.png	U	0	0	0	276.454733199906	276.654761599959
48148	100	367	10	0	20	7	8	0	0	1	0	stim009_stimuli_original_vehicles_boats_1.png	A	0	0	0	276.854771399987	277.054774499964
48248	100	368	10	0	20	8	9	10	0	0	0	stim010_stimuli_original_vehicles_boats_2.png	Q	0	0	0	277.254778099945	277.454779099906
48348	100	369	10	0	20	9	1	0	0	1	0	stim002_stimuli_original_animals_birds_2.png	A	0	0	0	277.654774099938	277.854786199983
48448	100	370	10	0	20	10	7	1	0	0	0	stim008_stimuli_original_animals_fish_4.png	B	0	0	0	278.054801799939	278.254797899979
48548	100	371	10	0	20	11	14	9	0	0	0	stim015_stimuli_original_vehicles_planes_3.png	L	0	0	0	278.454811599921	278.654810699983
48648	100	372	10	0	20	12	0	7	0	0	0	stim001_stimuli_original_animals_birds_1.png	J	0	0	0	278.85482030001	279.05480719998
48748	100	373	10	0	20	13	5	15	0	0	0	stim006_stimuli_original_animals_fish_2.png	Y	0	0	0	279.254814199987	279.454834099975
48848	100	374	10	0	20	14	13	3	0	0	0	stim014_stimuli_original_vehicles_planes_2.png	D	0	0	0	279.654860900017	279.854842399945
48948	100	375	10	0	20	15	11	14	0	0	0	stim012_stimuli_original_vehicles_boats_4.png	V	0	0	0	280.054851899971	280.254849699908
49048	100	376	10	0	20	16	15	0	0	0	0	stim016_stimuli_original_vehicles_planes_4.png	A	0	0	0	280.454864399973	280.654861299903
49148.25	100	377	10	0	20	17	2	6	0	0	0	stim003_stimuli_original_animals_birds_3.png	G	0	0	0	280.854904999956	281.054877299932
49248.25	100	378	10	0	20	18	6	2	0	0	0	stim007_stimuli_original_animals_fish_3.png	C	0	0	0	281.254886099952	281.454884300008
49348.25	100	379	10	0	20	19	0	15	0	0	0	stim001_stimuli_original_animals_birds_1.png	Y	0	0	0	281.654898599954	281.854890299961
49448.25	100	380	10	0	20	20	14	11	0	0	0	stim015_stimuli_original_vehicles_planes_3.png	R	0	0	0	282.054910499952	282.254903999972
49548.25	100	381	10	0	20	21	3	13	0	0	0	stim004_stimuli_original_animals_birds_4.png	U	0	0	0	282.454913599999	282.654916699976
49648.25	100	382	10	0	20	22	15	5	0	0	0	stim016_stimuli_original_vehicles_planes_4.png	F	d	282.847464199993	0	282.854926600005	283.054927899968
49748.25	100	383	10	0	20	23	7	0	0	0	0	stim008_stimuli_original_animals_fish_4.png	A	0	0	0	283.254940599902	283.454938099952
49848.25	100	384	10	0	20	24	9	14	0	0	0	stim010_stimuli_original_vehicles_boats_2.png	V	0	0	0	283.654947999981	283.854935899959
49948.25	100	385	10	0	20	25	1	7	0	0	0	stim002_stimuli_original_animals_birds_2.png	J	0	0	0	284.054963800008	284.254959099926
50048.25	100	386	10	0	20	26	0	1	1	0	0	stim001_stimuli_original_animals_birds_1.png	B	0	0	0	284.454973999993	284.654973499943
50148.25	100	387	10	0	20	27	10	9	0	0	0	stim011_stimuli_original_vehicles_boats_3.png	L	0	0	0	284.854979199939	285.054975699983
50248.25	100	388	10	0	20	28	0	8	1	0	1	stim001_stimuli_original_animals_birds_1.png	K	0	0	0	285.254991299938	285.454994299915
50348.25	100	389	10	0	20	29	13	7	0	1	0	stim014_stimuli_original_vehicles_planes_2.png	J	0	0	0	285.655007499969	285.855006999918
50448.25	100	390	10	0	20	30	8	4	0	0	0	stim009_stimuli_original_vehicles_boats_1.png	E	0	0	0	286.055019999971	286.255021899939
50548.25	100	391	10	0	20	31	2	7	0	1	0	stim003_stimuli_original_animals_birds_3.png	J	0	0	0	286.455032799975	286.655025799992
50648.25	100	392	10	0	20	32	11	6	0	0	0	stim012_stimuli_original_vehicles_boats_4.png	G	0	0	0	286.855037399917	287.0550392
50748.25	100	393	10	0	20	33	12	3	0	0	0	stim013_stimuli_original_vehicles_planes_1.png	D	0	0	0	287.255043699988	287.455065799993
50848.25	100	394	10	0	20	34	5	12	0	0	0	stim006_stimuli_original_animals_fish_2.png	T	0	0	0	287.655063399929	287.855055899941
50948.25	100	395	10	0	20	35	4	10	0	0	0	stim005_stimuli_original_animals_fish_1.png	Q	0	0	0	288.055072199902	288.255069099949
51944	100	396	11	1	38	0	9	12	0	0	0	stim010_stimuli_original_vehicles_boats_2.png	T	0	0	0	292.038496499998	292.238493499928
52044	100	397	11	1	38	1	4	3	0	0	0	stim005_stimuli_original_animals_fish_1.png	D	0	0	0	292.438506199978	292.638491599937
52144	100	398	11	1	38	2	3	10	0	0	0	stim004_stimuli_original_animals_birds_4.png	Q	0	0	0	292.838503299979	293.038501899922
52244	100	399	11	1	38	3	1	4	0	0	0	stim002_stimuli_original_animals_birds_2.png	E	0	0	0	293.238513199962	293.438513099914
52344	100	400	11	1	38	4	13	5	0	0	0	stim014_stimuli_original_vehicles_planes_2.png	F	0	0	0	293.638525299961	293.838524899911
52444	100	401	11	1	38	5	0	0	0	0	0	stim001_stimuli_original_animals_birds_1.png	A	0	0	0	294.038538199966	294.238534200005
52544	100	402	11	1	38	6	2	7	0	0	0	stim003_stimuli_original_animals_birds_3.png	J	0	0	0	294.438560299925	294.638544499991
52644	100	403	11	1	38	7	10	9	0	0	0	stim011_stimuli_original_vehicles_boats_3.png	L	0	0	0	294.838558199932	295.03855669999
52744	100	404	11	1	38	8	5	6	1	0	0	stim006_stimuli_original_animals_fish_2.png	G	0	0	0	295.23856889992	295.438567099976
52844	100	405	11	1	38	9	15	15	0	0	0	stim016_stimuli_original_vehicles_planes_4.png	Y	0	0	0	295.638576700003	295.838575999951
52944	100	406	11	1	38	10	5	8	1	0	0	stim006_stimuli_original_animals_fish_2.png	K	0	0	0	296.038589400006	296.238587599946
53044	100	407	11	1	38	11	11	13	0	0	0	stim012_stimuli_original_vehicles_boats_4.png	U	0	0	0	296.438600900001	296.638598799938
53144	100	408	11	1	38	12	14	4	0	1	0	stim015_stimuli_original_vehicles_planes_3.png	E	0	0	0	296.838608399965	297.038612299948
53244	100	409	11	1	38	13	6	2	0	0	0	stim007_stimuli_original_animals_fish_3.png	C	0	0	0	297.238622899982	297.438623099937
53344	100	410	11	1	38	14	5	4	0	1	1	stim006_stimuli_original_animals_fish_2.png	E	0	0	0	297.638631199952	297.838634699932
53444	100	411	11	1	38	15	12	1	0	0	0	stim013_stimuli_original_vehicles_planes_1.png	B	0	0	0	298.038642399944	298.238641200005
53544	100	412	11	1	38	16	7	11	0	0	0	stim008_stimuli_original_animals_fish_4.png	R	0	0	0	298.43865269993	298.638653300004
53644	100	413	11	1	38	17	8	14	0	0	0	stim009_stimuli_original_vehicles_boats_1.png	V	0	0	0	298.838665399933	299.03867629997
53744	100	414	11	1	38	18	14	8	0	0	0	stim015_stimuli_original_vehicles_planes_3.png	K	0	0	0	299.238676299923	299.438679300016
53844	100	415	11	1	38	19	11	7	0	0	0	stim012_stimuli_original_vehicles_boats_4.png	J	0	0	0	299.638689099927	299.838684699964
53944	100	416	11	1	38	20	1	12	0	0	0	stim002_stimuli_original_animals_birds_2.png	T	0	0	0	300.038698599907	300.238694199943
54044	100	417	11	1	38	21	4	5	1	0	0	stim005_stimuli_original_animals_fish_1.png	F	0	0	0	300.438707299996	300.638707999955
54144	100	418	11	1	38	22	2	6	0	0	0	stim003_stimuli_original_animals_birds_3.png	G	0	0	0	300.838718599989	301.038716599927
54244	100	419	11	1	38	23	4	14	1	0	0	stim005_stimuli_original_animals_fish_1.png	V	0	0	0	301.238760099979	301.438726799912
54344	100	420	11	1	38	24	13	11	0	0	0	stim014_stimuli_original_vehicles_planes_2.png	R	0	0	0	301.638739799964	301.838752200012
54444	100	421	11	1	38	25	8	5	0	1	0	stim009_stimuli_original_vehicles_boats_1.png	F	0	0	0	302.03875149996	302.238761299988
54544	100	422	11	1	38	26	15	15	0	0	0	stim016_stimuli_original_vehicles_planes_4.png	Y	0	0	0	302.43876239995	302.638760300004
54644	100	423	11	1	38	27	6	5	0	1	1	stim007_stimuli_original_animals_fish_3.png	F	0	0	0	302.838770199916	303.038771099993
54744	100	424	11	1	38	28	9	10	0	0	0	stim010_stimuli_original_vehicles_boats_2.png	Q	0	0	0	303.238781399908	303.438780799974
54844	100	425	11	1	38	29	7	2	0	0	0	stim008_stimuli_original_animals_fish_4.png	C	d	303.639009999926	1	303.638794899918	303.838821599958
54944	100	426	11	1	38	30	0	0	0	0	0	stim001_stimuli_original_animals_birds_1.png	A	0	0	0	304.038804500015	304.238804299966
55044	100	427	11	1	38	31	5	13	0	0	0	stim006_stimuli_original_animals_fish_2.png	U	0	0	0	304.43883749994	304.638813799946
55144	100	428	11	1	38	32	4	1	0	0	0	stim005_stimuli_original_animals_fish_1.png	B	0	0	0	304.838827400003	305.038823899929
55244	100	429	11	1	38	33	10	3	0	0	0	stim011_stimuli_original_vehicles_boats_3.png	D	0	0	0	305.23883399996	305.438837099937
55344	100	430	11	1	38	34	3	4	0	0	0	stim004_stimuli_original_animals_birds_4.png	E	0	0	0	305.638845199952	305.838845899911
55444	100	431	11	1	38	35	12	9	0	0	0	stim013_stimuli_original_vehicles_planes_1.png	L	0	0	0	306.038865500013	306.238856999902
56223.25	100	432	12	0	8	0	14	15	0	0	0	stim015_stimuli_original_vehicles_planes_3.png	Y	0	0	0	309.155622099992	309.355636799941
56323.25	100	433	12	0	8	1	3	5	0	0	0	stim004_stimuli_original_animals_birds_4.png	F	0	0	0	309.555619599996	309.755616899929
56423.25	100	434	12	0	8	2	8	6	0	0	0	stim009_stimuli_original_vehicles_boats_1.png	G	0	0	0	309.955630499986	310.15562929993
56523.25	100	435	12	0	8	3	6	12	0	0	0	stim007_stimuli_original_animals_fish_3.png	T	0	0	0	310.355640899972	310.55564409995
56623.25	100	436	12	0	8	4	0	9	0	0	0	stim001_stimuli_original_animals_birds_1.png	L	0	0	0	310.755656099995	310.955652599921
56723.25	100	437	12	0	8	5	7	1	0	1	0	stim008_stimuli_original_animals_fish_4.png	B	0	0	0	311.155663099955	311.355665699928
56823.25	100	438	12	0	8	6	6	14	1	0	0	stim007_stimuli_original_animals_fish_3.png	V	0	0	0	311.555672299932	311.755673800013
56923.25	100	439	12	0	8	7	1	1	0	1	0	stim002_stimuli_original_animals_birds_2.png	B	d	312.155861699954	0	311.955691699986	312.155683699995
57023.25	100	440	12	0	8	8	6	3	1	0	1	stim007_stimuli_original_animals_fish_3.png	D	0	0	0	312.355696799932	312.555692699971
57123.25	100	441	12	0	8	9	13	11	0	0	0	stim014_stimuli_original_vehicles_planes_2.png	R	0	0	0	312.755703100003	312.95570479997
57223.25	100	442	12	0	8	10	15	4	0	0	0	stim016_stimuli_original_vehicles_planes_4.png	E	0	0	0	313.155715400004	313.355713499943
57323.25	100	443	12	0	8	11	4	10	0	0	0	stim005_stimuli_original_animals_fish_1.png	Q	0	0	0	313.555726099992	313.755728199962
57423.25	100	444	12	0	8	12	2	0	0	0	0	stim003_stimuli_original_animals_birds_3.png	A	0	0	0	313.955735899974	314.155735099921
57523.25	100	445	12	0	8	13	10	13	0	0	0	stim011_stimuli_original_vehicles_boats_3.png	U	0	0	0	314.355748199974	314.555746899918
57623.25	100	446	12	0	8	14	9	1	0	0	0	stim010_stimuli_original_vehicles_boats_2.png	B	0	0	0	314.755758199957	314.955757199903
57723.25	100	447	12	0	8	15	11	8	0	0	0	stim012_stimuli_original_vehicles_boats_4.png	K	0	0	0	315.155767799937	315.355770199909
57823.25	100	448	12	0	8	16	12	7	0	0	0	stim013_stimuli_original_vehicles_planes_1.png	J	0	0	0	315.555780199938	315.755779300001
57923.25	100	449	12	0	8	17	5	2	0	0	0	stim006_stimuli_original_animals_fish_2.png	C	0	0	0	315.955791599932	316.155789199984
58023.25	100	450	12	0	8	18	2	5	0	0	0	stim003_stimuli_original_animals_birds_3.png	F	0	0	0	316.35580229992	316.555804500007
58123.25	100	451	12	0	8	19	7	12	0	0	0	stim008_stimuli_original_animals_fish_4.png	T	0	0	0	316.755811999901	316.955811999971
58223.25	100	452	12	0	8	20	8	11	0	0	0	stim009_stimuli_original_vehicles_boats_1.png	R	0	0	0	317.155827299925	317.355821699952
58323.25	100	453	12	0	8	21	1	9	0	0	0	stim002_stimuli_original_animals_birds_2.png	L	0	0	0	317.555833499995	317.755830799928
58423.25	100	454	12	0	8	22	13	10	0	0	0	stim014_stimuli_original_vehicles_planes_2.png	Q	0	0	0	317.955844299984	318.155842199922
58523.25	100	455	12	0	8	23	0	2	0	0	0	stim001_stimuli_original_animals_birds_1.png	C	0	0	0	318.355856999988	318.555854299921
58623.25	100	456	12	0	8	24	10	4	0	0	0	stim011_stimuli_original_vehicles_boats_3.png	E	0	0	0	318.755865299958	318.955863500014
58723.25	100	457	12	0	8	25	4	15	0	0	0	stim005_stimuli_original_animals_fish_1.png	Y	0	0	0	319.155878199963	319.355877999915
58823.25	100	458	12	0	8	26	11	13	0	0	0	stim012_stimuli_original_vehicles_boats_4.png	U	0	0	0	319.55588609993	319.755884299986
58923.25	100	459	12	0	8	27	3	6	0	1	0	stim004_stimuli_original_animals_birds_4.png	G	0	0	0	319.955897799926	320.155902999919
59023.25	100	460	12	0	8	28	1	1	1	0	0	stim002_stimuli_original_animals_birds_2.png	B	0	0	0	320.355907499907	320.555909799994
59123.25	100	461	12	0	8	29	14	6	0	1	0	stim015_stimuli_original_vehicles_planes_3.png	G	0	0	0	320.755923599936	320.955920099979
59223.25	100	462	12	0	8	30	1	7	1	0	1	stim002_stimuli_original_animals_birds_2.png	J	0	0	0	321.155929500004	321.355940899928
59323.25	100	463	12	0	8	31	9	0	0	0	0	stim010_stimuli_original_vehicles_boats_2.png	A	d	321.747730999952	1	321.555939299986	321.755942799966
59423.25	100	464	12	0	8	32	12	6	0	0	0	stim013_stimuli_original_vehicles_planes_1.png	G	0	0	0	321.955951299984	322.155949099921
59523.25	100	465	12	0	8	33	6	8	0	0	0	stim007_stimuli_original_animals_fish_3.png	K	0	0	0	322.355965800001	322.555960499914
59623.25	100	466	12	0	8	34	5	3	0	0	0	stim006_stimuli_original_animals_fish_2.png	D	0	0	0	322.755972299958	322.955971999909
59723.25	100	467	12	0	8	35	15	14	0	0	0	stim016_stimuli_original_vehicles_planes_4.png	V	0	0	0	323.155982899945	323.355983000016
69869.5	100	468	13	1	35	0	10	2	0	0	0	stim011_stimuli_original_vehicles_boats_3.png	C	0	0	0	363.740438899957	363.940435700002
69969.5	100	469	13	1	35	1	9	14	0	0	0	stim010_stimuli_original_vehicles_boats_2.png	V	0	0	0	364.140447399928	364.34044629999
70069.5	100	470	13	1	35	2	15	4	0	0	0	stim016_stimuli_original_vehicles_planes_4.png	E	0	0	0	364.540462599951	364.740462499904
70169.5	100	471	13	1	35	3	1	7	0	0	0	stim002_stimuli_original_animals_birds_2.png	J	0	0	0	364.940490999958	365.140469299979
70269.5	100	472	13	1	35	4	8	12	1	0	0	stim009_stimuli_original_vehicles_boats_1.png	T	0	0	0	365.340480999905	365.540462999954
70369.5	100	473	13	1	35	5	11	9	0	0	0	stim012_stimuli_original_vehicles_boats_4.png	L	0	0	0	365.740495799924	365.940491999965
70469.5	100	474	13	1	35	6	8	3	1	0	0	stim009_stimuli_original_vehicles_boats_1.png	D	0	0	0	366.140502099996	366.340498699923
70569.5	100	475	13	1	35	7	0	8	0	0	0	stim001_stimuli_original_animals_birds_1.png	K	0	0	0	366.540515700006	366.740510599921
70669.5	100	476	13	1	35	8	13	13	0	0	0	stim014_stimuli_original_vehicles_planes_2.png	U	0	0	0	366.940525699989	367.140513899969
70769.5	100	477	13	1	35	9	6	1	0	0	0	stim007_stimuli_original_animals_fish_3.png	B	0	0	0	367.340532699949	367.540539899957
70869.5	100	478	13	1	35	10	14	3	0	1	0	stim015_stimuli_original_vehicles_planes_3.png	D	0	0	0	367.740544699947	367.940543000004
70969.5	100	479	13	1	35	11	4	15	0	0	0	stim005_stimuli_original_animals_fish_1.png	Y	0	0	0	368.140554799931	368.340552399983
71069.5	100	480	13	1	35	12	5	3	0	1	1	stim006_stimuli_original_animals_fish_2.png	D	0	0	0	368.540571699967	368.740567100001
71169.5	100	481	13	1	35	13	3	0	0	0	0	stim004_stimuli_original_animals_birds_4.png	A	d	369.132369600004	1	368.940578899928	369.140574699966
71269.5	100	482	13	1	35	14	7	5	0	0	0	stim008_stimuli_original_animals_fish_4.png	F	0	0	0	369.340587100014	369.540586299961
71369.5	100	483	13	1	35	15	2	6	0	0	0	stim003_stimuli_original_animals_birds_3.png	G	0	0	0	369.740571299917	369.940597099951
71469.5	100	484	13	1	35	16	12	11	0	0	0	stim013_stimuli_original_vehicles_planes_1.png	R	0	0	0	370.140619199956	370.340612199972
71569.5	100	485	13	1	35	17	8	10	0	0	0	stim009_stimuli_original_vehicles_boats_1.png	Q	0	0	0	370.540617699968	370.740618699929
71669.5	100	486	13	1	35	18	10	8	0	0	0	stim011_stimuli_original_vehicles_boats_3.png	K	0	0	0	370.940629799967	371.140627100016
71769.5	100	487	13	1	35	19	11	12	0	0	0	stim012_stimuli_original_vehicles_boats_4.png	T	0	0	0	371.340642199968	371.540641499916
71869.5	100	488	13	1	35	20	6	2	0	0	0	stim007_stimuli_original_animals_fish_3.png	C	0	0	0	371.740651299944	371.940649700002
71969.5	100	489	13	1	35	21	5	7	0	0	0	stim006_stimuli_original_animals_fish_2.png	J	0	0	0	372.140662899939	372.340649699909
72069.5	100	490	13	1	35	22	0	3	0	0	0	stim001_stimuli_original_animals_birds_1.png	D	0	0	0	372.540671199909	372.740659700008
72169.5	100	491	13	1	35	23	3	5	1	0	0	stim004_stimuli_original_animals_birds_4.png	F	0	0	0	372.940673699952	373.14068219997
72269.5	100	492	13	1	35	24	15	4	0	0	0	stim016_stimuli_original_vehicles_planes_4.png	E	0	0	0	373.340693900012	373.540695299977
72369.5	100	493	13	1	35	25	3	14	1	0	0	stim004_stimuli_original_animals_birds_4.png	V	0	0	0	373.740703799995	373.940705099958
72469.5	100	494	13	1	35	26	1	6	0	0	0	stim002_stimuli_original_animals_birds_2.png	G	0	0	0	374.140714499983	374.340712999925
72569.5	100	495	13	1	35	27	13	13	0	0	0	stim014_stimuli_original_vehicles_planes_2.png	U	0	0	0	374.540731000016	374.740724799922
72669.5	100	496	13	1	35	28	8	0	0	0	0	stim009_stimuli_original_vehicles_boats_1.png	A	0	0	0	374.940745499916	375.140735299909
72769.5	100	497	13	1	35	29	3	8	0	1	0	stim004_stimuli_original_animals_birds_4.png	K	0	0	0	375.340746499947	375.540734799928
72869.5	100	498	13	1	35	30	9	11	0	0	0	stim010_stimuli_original_vehicles_boats_2.png	R	0	0	0	375.740757099935	375.940756800002
72969.5	100	499	13	1	35	31	12	8	0	1	1	stim013_stimuli_original_vehicles_planes_1.png	K	0	0	0	376.140770699945	376.340768900001
73069.5	100	500	13	1	35	32	7	1	0	0	0	stim008_stimuli_original_animals_fish_4.png	B	d	376.533359699999	1	376.540783699951	376.740777199971
73169.5	100	501	13	1	35	33	4	15	0	0	0	stim005_stimuli_original_animals_fish_1.png	Y	0	0	0	376.940790799912	377.140774199972
73269.5	100	502	13	1	35	34	14	9	0	0	0	stim015_stimuli_original_vehicles_planes_3.png	L	0	0	0	377.340783799998	377.540805900004
73369.5	100	503	13	1	35	35	2	10	0	0	0	stim003_stimuli_original_animals_birds_3.png	Q	0	0	0	377.740815099911	377.940810199943
74240.5	100	504	14	0	25	0	7	10	0	0	0	stim008_stimuli_original_animals_fish_4.png	Q	0	0	0	381.224242499913	381.424239199958
74340.5	100	505	14	0	25	1	15	12	0	0	0	stim016_stimuli_original_vehicles_planes_4.png	T	0	0	0	381.624251200003	381.824242300005
74440.5	100	506	14	0	25	2	5	1	0	0	0	stim006_stimuli_original_animals_fish_2.png	B	0	0	0	382.024254899938	382.224253399996
74540.5	100	507	14	0	25	3	0	7	0	0	0	stim001_stimuli_original_animals_birds_1.png	J	0	0	0	382.424265599926	382.624248399981
74640.5	100	508	14	0	25	4	3	2	0	0	0	stim004_stimuli_original_animals_birds_4.png	C	0	0	0	382.824275799911	383.02427579998
74740.5	100	509	14	0	25	5	13	6	1	0	0	stim014_stimuli_original_vehicles_planes_2.png	G	0	0	0	383.224264799966	383.424272499979
74840.5	100	510	14	0	25	6	14	11	0	0	0	stim015_stimuli_original_vehicles_planes_3.png	R	0	0	0	383.624298300012	383.824296399951
74940.5	100	511	14	0	25	7	13	8	1	0	1	stim014_stimuli_original_vehicles_planes_2.png	K	0	0	0	384.024295100011	384.224306899938
75040.5	100	512	14	0	25	8	12	9	0	0	0	stim013_stimuli_original_vehicles_planes_1.png	L	0	0	0	384.424318399979	384.62432199996
75140.5	100	513	14	0	25	9	1	4	0	0	0	stim002_stimuli_original_animals_birds_2.png	E	d	384.816900599981	1	384.824333299999	385.024329699925
75240.5	100	514	14	0	25	10	9	13	0	0	0	stim010_stimuli_original_vehicles_boats_2.png	U	0	0	0	385.224339299952	385.424343399936
75340.5	100	515	14	0	25	11	10	12	0	1	0	stim011_stimuli_original_vehicles_boats_3.png	T	d	385.816141699906	1	385.624352399958	385.824336199905
75440.5	100	516	14	0	25	12	2	15	0	0	0	stim003_stimuli_original_animals_birds_3.png	Y	0	0	0	386.02436089993	386.224360299995
75540.5	100	517	14	0	25	13	6	12	0	1	0	stim007_stimuli_original_animals_fish_3.png	T	0	0	0	386.42437709996	386.6243731
75640.5	100	518	14	0	25	14	13	14	0	0	0	stim014_stimuli_original_vehicles_planes_2.png	V	0	0	0	386.824385799933	387.024362499942
75740.5	100	519	14	0	25	15	8	3	0	0	0	stim009_stimuli_original_vehicles_boats_1.png	D	0	0	0	387.224371099961	387.424368900014
75840.5	100	520	14	0	25	16	11	5	0	0	0	stim012_stimuli_original_vehicles_boats_4.png	F	0	0	0	387.62438189995	387.824380800012
75940.5	100	521	14	0	25	17	4	0	0	0	0	stim005_stimuli_original_animals_fish_1.png	A	0	0	0	388.024394599954	388.224389599985
76040.5	100	522	14	0	25	18	0	4	0	0	0	stim001_stimuli_original_animals_birds_1.png	E	0	0	0	388.4244282	388.624400599976
76140.5	100	523	14	0	25	19	5	11	0	0	0	stim006_stimuli_original_animals_fish_2.png	R	0	0	0	388.824416599935	389.024416700006
76240.5	100	524	14	0	25	20	3	8	0	0	0	stim004_stimuli_original_animals_birds_4.png	K	0	0	0	389.224422300002	389.424423299963
76340.5	100	525	14	0	25	21	14	13	0	0	0	stim015_stimuli_original_vehicles_planes_3.png	U	0	0	0	389.624433499994	389.824433699949
76440.5	100	526	14	0	25	22	12	6	1	0	0	stim013_stimuli_original_vehicles_planes_1.png	G	0	0	0	390.024444699986	390.224454999901
76540.5	100	527	14	0	25	23	15	2	0	0	0	stim016_stimuli_original_vehicles_planes_4.png	C	0	0	0	390.424482399947	390.624481100007
76640.5	100	528	14	0	25	24	12	10	1	0	1	stim013_stimuli_original_vehicles_planes_1.png	Q	0	0	0	390.824495899957	391.024489599979
76740.5	100	529	14	0	25	25	13	9	0	0	0	stim014_stimuli_original_vehicles_planes_2.png	L	0	0	0	391.224503699923	391.42451209994
76840.5	100	530	14	0	25	26	4	1	0	0	0	stim005_stimuli_original_animals_fish_1.png	B	0	0	0	391.624513399904	391.824517100002
76940.5	100	531	14	0	25	27	9	12	0	0	0	stim010_stimuli_original_vehicles_boats_2.png	T	d	392.017083899933	1	392.024523900007	392.224526099977
77040.5	100	532	14	0	25	28	8	13	0	1	0	stim009_stimuli_original_vehicles_boats_1.png	U	0	0	0	392.424534999998	392.624533599941
77140.5	100	533	14	0	25	29	11	14	0	0	0	stim012_stimuli_original_vehicles_boats_4.png	V	0	0	0	392.824544999981	393.024543599924
77240.5	100	534	14	0	25	30	6	13	0	1	0	stim007_stimuli_original_animals_fish_3.png	U	0	0	0	393.22455709998	393.424556099926
77340.5	100	535	14	0	25	31	2	3	0	0	0	stim003_stimuli_original_animals_birds_3.png	D	0	0	0	393.624566199956	393.824567399919
77440.5	100	536	14	0	25	32	7	0	0	0	0	stim008_stimuli_original_animals_fish_4.png	A	0	0	0	394.02457759995	394.224577000015
77540.5	100	537	14	0	25	33	1	5	0	0	0	stim002_stimuli_original_animals_birds_2.png	F	0	0	0	394.424591799965	394.624586899998
77640.5	100	538	14	0	25	34	12	15	0	0	0	stim013_stimuli_original_vehicles_planes_1.png	Y	0	0	0	394.824602199951	395.024598999997
77740.5	100	539	14	0	25	35	10	7	0	0	0	stim011_stimuli_original_vehicles_boats_3.png	J	0	0	0	395.224609499914	395.424612000003
78378	100	540	15	1	39	0	6	4	0	0	0	stim007_stimuli_original_animals_fish_3.png	E	0	0	0	397.774684399948	397.974675299949
78478	100	541	15	1	39	1	14	6	0	0	0	stim015_stimuli_original_vehicles_planes_3.png	G	0	0	0	398.174689200008	398.37468629994
78578	100	542	15	1	39	2	11	7	0	0	0	stim012_stimuli_original_vehicles_boats_4.png	J	0	0	0	398.574701100006	398.774698499939
78678	100	543	15	1	39	3	8	14	0	0	0	stim009_stimuli_original_vehicles_boats_1.png	V	0	0	0	398.974718999933	399.174707099912
78778	100	544	15	1	39	4	4	1	0	0	0	stim005_stimuli_original_animals_fish_1.png	B	0	0	0	399.374719399959	399.574718999909
78878	100	545	15	1	39	5	9	8	0	0	0	stim010_stimuli_original_vehicles_boats_2.png	K	d	399.966522299917	0	399.774734799983	399.974716299912
78978	100	546	15	1	39	6	12	9	0	0	0	stim013_stimuli_original_vehicles_planes_1.png	L	0	0	0	400.174740799936	400.374740900006
79078	100	547	15	1	39	7	13	5	0	0	0	stim014_stimuli_original_vehicles_planes_2.png	F	0	0	0	400.574753199937	400.774726799922
79178	100	548	15	1	39	8	11	15	1	0	0	stim012_stimuli_original_vehicles_boats_4.png	Y	0	0	0	400.974763599923	401.174763799994
79278	100	549	15	1	39	9	10	2	0	1	0	stim011_stimuli_original_vehicles_boats_3.png	C	0	0	0	401.374820099911	401.574773299973
79378	100	550	15	1	39	10	11	0	1	0	0	stim012_stimuli_original_vehicles_boats_4.png	A	0	0	0	401.774787199916	401.974779699929
79478	100	551	15	1	39	11	15	2	0	1	1	stim016_stimuli_original_vehicles_planes_4.png	C	0	0	0	402.174797499902	402.374790199916
79578	100	552	15	1	39	12	1	10	0	0	0	stim002_stimuli_original_animals_birds_2.png	Q	0	0	0	402.574804899981	402.774801499909
79678	100	553	15	1	39	13	2	3	0	0	0	stim003_stimuli_original_animals_birds_3.png	D	0	0	0	402.974814499961	403.174813599908
79778	100	554	15	1	39	14	5	11	0	0	0	stim006_stimuli_original_animals_fish_2.png	R	0	0	0	403.374822999933	403.574821799994
79878	100	555	15	1	39	15	7	2	0	0	0	stim008_stimuli_original_animals_fish_4.png	C	0	0	0	403.774836999946	403.974835000001
79978	100	556	15	1	39	16	3	13	0	0	0	stim004_stimuli_original_animals_birds_4.png	U	d	404.167454399983	1	404.174846299924	404.374845099985
80078	100	557	15	1	39	17	0	12	0	0	0	stim001_stimuli_original_animals_birds_1.png	T	0	0	0	404.574858999928	404.774857799988
80178	100	558	15	1	39	18	12	0	0	0	0	stim013_stimuli_original_vehicles_planes_1.png	A	d	405.166655299952	0	404.974868299905	405.174870399991
80278	100	559	15	1	39	19	13	3	0	0	0	stim014_stimuli_original_vehicles_planes_2.png	D	0	0	0	405.374878200004	405.574876299943
80378	100	560	15	1	39	20	2	7	0	0	0	stim003_stimuli_original_animals_birds_3.png	J	0	0	0	405.774889299995	405.974892799975
80478	100	561	15	1	39	21	11	5	0	0	0	stim012_stimuli_original_vehicles_boats_4.png	F	0	0	0	406.174897799967	406.374877900002
80578	100	562	15	1	39	22	3	2	0	0	0	stim004_stimuli_original_animals_birds_4.png	C	0	0	0	406.574912199983	406.774912699941
80678	100	563	15	1	39	23	10	1	0	0	0	stim011_stimuli_original_vehicles_boats_3.png	B	0	0	0	406.974933499936	407.174922799924
80778	100	564	15	1	39	24	2	15	1	0	0	stim003_stimuli_original_animals_birds_3.png	Y	d	407.566737000016	0	407.374936099979	407.574941699975
80878	100	565	15	1	39	25	0	11	0	1	0	stim001_stimuli_original_animals_birds_1.png	R	0	0	0	407.774943999946	407.974943300011
80978	100	566	15	1	39	26	2	10	1	0	0	stim003_stimuli_original_animals_birds_3.png	Q	0	0	0	408.174954999937	408.374953199993
81078	100	567	15	1	39	27	15	11	0	1	1	stim016_stimuli_original_vehicles_planes_4.png	R	0	0	0	408.57496629993	408.774964399985
81178	100	568	15	1	39	28	5	13	0	0	0	stim006_stimuli_original_animals_fish_2.png	U	0	0	0	408.974990399904	409.174971099943
81278	100	569	15	1	39	29	9	12	0	0	0	stim010_stimuli_original_vehicles_boats_2.png	T	0	0	0	409.374987000017	409.574991600006
81378	100	570	15	1	39	30	8	9	0	0	0	stim009_stimuli_original_vehicles_boats_1.png	L	0	0	0	409.774996099994	409.974992699921
81478	100	571	15	1	39	31	1	4	0	0	0	stim002_stimuli_original_animals_birds_2.png	E	0	0	0	410.1750092	410.375004899921
81578	100	572	15	1	39	32	14	8	0	0	0	stim015_stimuli_original_vehicles_planes_3.png	K	0	0	0	410.57501749997	410.775017599924
81678	100	573	15	1	39	33	7	11	0	0	0	stim008_stimuli_original_animals_fish_4.png	R	0	0	0	410.97502839996	411.17503059993
81778	100	574	15	1	39	34	6	14	0	0	0	stim007_stimuli_original_animals_fish_3.png	V	0	0	0	411.375038899947	411.575038800016
81878	100	575	15	1	39	35	4	6	0	0	0	stim005_stimuli_original_animals_fish_1.png	G	d	411.767643700005	0	411.775068499963	411.975046599982
82674	100	576	16	0	45	0	14	11	0	0	0	stim015_stimuli_original_vehicles_planes_3.png	R	0	0	0	414.958486999967	415.158471299917
82774	100	577	16	0	45	1	0	2	0	0	0	stim001_stimuli_original_animals_birds_1.png	C	0	0	0	415.358482099953	415.558481699903
82874	100	578	16	0	45	2	11	3	0	0	0	stim012_stimuli_original_vehicles_boats_4.png	D	0	0	0	415.75849259994	415.958492700011
82974	100	579	16	0	45	3	7	6	0	0	0	stim008_stimuli_original_animals_fish_4.png	G	0	0	0	416.158507199958	416.358503199997
83074	100	580	16	0	45	4	2	12	0	0	0	stim003_stimuli_original_animals_birds_3.png	T	0	0	0	416.558516499936	416.758512099972
83174	100	581	16	0	45	5	11	0	1	0	0	stim012_stimuli_original_vehicles_boats_4.png	A	0	0	0	416.95850790001	417.158524899976
83274	100	582	16	0	45	6	4	5	0	0	0	stim005_stimuli_original_animals_fish_1.png	F	0	0	0	417.358537099906	417.558536599972
83374	100	583	16	0	45	7	11	9	1	0	1	stim012_stimuli_original_vehicles_boats_4.png	L	0	0	0	417.758545199991	417.958520499989
83474	100	584	16	0	45	8	8	13	0	0	0	stim009_stimuli_original_vehicles_boats_1.png	U	d	418.358714599977	1	418.158545000013	418.358531699982
83574	100	585	16	0	45	9	13	15	0	0	0	stim014_stimuli_original_vehicles_planes_2.png	Y	0	0	0	418.558556600008	418.758553199936
83674	100	586	16	0	45	10	1	1	0	1	0	stim002_stimuli_original_animals_birds_2.png	B	0	0	0	418.958564499975	419.158561499906
83774	100	587	16	0	45	11	10	7	0	0	0	stim011_stimuli_original_vehicles_boats_3.png	J	0	0	0	419.358564900002	419.55856159993
83874	100	588	16	0	45	12	6	1	0	1	0	stim007_stimuli_original_animals_fish_3.png	B	0	0	0	419.758574599982	419.958572099917
83974	100	589	16	0	45	13	3	8	0	0	0	stim004_stimuli_original_animals_birds_4.png	K	0	0	0	420.15859789995	420.35860139993
84074	100	590	16	0	45	14	15	10	0	0	0	stim016_stimuli_original_vehicles_planes_4.png	Q	0	0	0	420.558610899956	420.758605199982
84174	100	591	16	0	45	15	9	1	0	0	0	stim010_stimuli_original_vehicles_boats_2.png	B	d	420.951203799923	0	420.958616899909	421.158616399975
84274	100	592	16	0	45	16	5	14	0	0	0	stim006_stimuli_original_animals_fish_2.png	V	0	0	0	421.358615099918	421.558617800009
84374	100	593	16	0	45	17	12	4	0	0	0	stim013_stimuli_original_vehicles_planes_1.png	E	0	0	0	421.758672299911	421.958628499997
84474	100	594	16	0	45	18	4	12	0	0	0	stim005_stimuli_original_animals_fish_1.png	T	0	0	0	422.158639199915	422.358639199985
84574	100	595	16	0	45	19	14	5	0	0	0	stim015_stimuli_original_vehicles_planes_3.png	F	0	0	0	422.558651299914	422.758649999974
84674	100	596	16	0	45	20	1	9	0	0	0	stim002_stimuli_original_animals_birds_2.png	L	0	0	0	422.958661300014	423.15865899995
84774	100	597	16	0	45	21	10	15	0	0	0	stim011_stimuli_original_vehicles_boats_3.png	Y	0	0	0	423.358671199996	423.558668899932
84874	100	598	16	0	45	22	8	3	0	0	0	stim009_stimuli_original_vehicles_boats_1.png	D	0	0	0	423.758683699998	423.958708199905
84974	100	599	16	0	45	23	1	6	1	0	0	stim002_stimuli_original_animals_birds_2.png	G	0	0	0	424.158715399913	424.358722099918
85074	100	600	16	0	45	24	7	10	0	0	0	stim008_stimuli_original_animals_fish_4.png	Q	0	0	0	424.558731199941	424.758731600014
85174	100	601	16	0	45	25	1	1	1	0	1	stim002_stimuli_original_animals_birds_2.png	B	0	0	0	424.958739799913	425.158709199983
85274	100	602	16	0	45	26	15	13	0	0	0	stim016_stimuli_original_vehicles_planes_4.png	U	0	0	0	425.358750100015	425.558749099961
85374	100	603	16	0	45	27	13	8	0	0	0	stim014_stimuli_original_vehicles_planes_2.png	K	0	0	0	425.758762700018	425.958759499947
85474	100	604	16	0	45	28	9	11	0	1	0	stim010_stimuli_original_vehicles_boats_2.png	R	0	0	0	426.158750399947	426.358774399967
85574	100	605	16	0	45	29	5	4	0	0	0	stim006_stimuli_original_animals_fish_2.png	E	0	0	0	426.558783999993	426.75876649993
85674	100	606	16	0	45	30	0	11	0	1	0	stim001_stimuli_original_animals_birds_1.png	R	0	0	0	426.958820299944	427.158793399925
85774	100	607	16	0	45	31	12	2	0	0	0	stim013_stimuli_original_vehicles_planes_1.png	C	0	0	0	427.358804499963	427.558804299915
85874	100	608	16	0	45	32	6	7	0	0	0	stim007_stimuli_original_animals_fish_3.png	J	0	0	0	427.75881369994	427.958815599908
85974	100	609	16	0	45	33	3	11	0	0	0	stim004_stimuli_original_animals_birds_4.png	R	0	0	0	428.158809599932	428.358824099996
86074	100	610	16	0	45	34	2	0	0	0	0	stim003_stimuli_original_animals_birds_3.png	A	0	0	0	428.55884069996	428.758833899978
86174	100	611	16	0	45	35	11	14	0	0	0	stim012_stimuli_original_vehicles_boats_4.png	V	d	428.951411899994	0	428.958844600013	429.15884769999
86874	100	612	17	1	32	0	2	2	0	0	0	stim003_stimuli_original_animals_birds_3.png	C	0	0	0	431.758930200012	431.958926099935
86974	100	613	17	1	32	1	15	4	0	0	0	stim016_stimuli_original_vehicles_planes_4.png	E	0	0	0	432.158921799972	432.358918400016
87074	100	614	17	1	32	2	6	3	0	0	0	stim007_stimuli_original_animals_fish_3.png	D	0	0	0	432.558930299943	432.75892990001
87174	100	615	17	1	32	3	9	15	0	0	0	stim010_stimuli_original_vehicles_boats_2.png	Y	0	0	0	432.958961199969	433.15895349998
87274	100	616	17	1	32	4	14	0	0	0	0	stim015_stimuli_original_vehicles_planes_3.png	A	0	0	0	433.358963700011	433.558971399907
87374	100	617	17	1	32	5	13	11	1	0	0	stim014_stimuli_original_vehicles_planes_2.png	R	0	0	0	433.7589745	433.95897529996
87474	100	618	17	1	32	6	4	12	0	0	0	stim005_stimuli_original_animals_fish_1.png	T	0	0	0	434.158977999934	434.358985199942
87574	100	619	17	1	32	7	13	1	1	0	0	stim014_stimuli_original_vehicles_planes_2.png	B	0	0	0	434.558997299988	434.758997399942
87674	100	620	17	1	32	8	5	7	0	0	0	stim006_stimuli_original_animals_fish_2.png	J	0	0	0	434.959007799975	435.15900799993
87774	100	621	17	1	32	9	10	10	0	0	0	stim011_stimuli_original_vehicles_boats_3.png	Q	0	0	0	435.359018999967	435.559019099921
87874	100	622	17	1	32	10	8	3	0	1	0	stim009_stimuli_original_vehicles_boats_1.png	D	0	0	0	435.759030799964	435.959011500003
87974	100	623	17	1	32	11	0	9	0	0	0	stim001_stimuli_original_animals_birds_1.png	L	0	0	0	436.15905389993	436.359014899936
88074	100	624	17	1	32	12	3	3	0	1	1	stim004_stimuli_original_animals_birds_4.png	D	0	0	0	436.55902559997	436.759026199928
88174	100	625	17	1	32	13	13	13	0	0	0	stim014_stimuli_original_vehicles_planes_2.png	U	0	0	0	436.959023699979	437.159060199978
88274	100	626	17	1	32	14	12	6	0	0	0	stim013_stimuli_original_vehicles_planes_1.png	G	0	0	0	437.359076499939	437.559074399993
88374	100	627	17	1	32	15	7	14	0	0	0	stim008_stimuli_original_animals_fish_4.png	V	0	0	0	437.759071899927	437.959083299967
88474	100	628	17	1	32	16	1	8	0	0	0	stim002_stimuli_original_animals_birds_2.png	K	0	0	0	438.159094300005	438.359096699976
88574	100	629	17	1	32	17	11	5	0	0	0	stim012_stimuli_original_vehicles_boats_4.png	F	0	0	0	438.559104099986	438.759059699951
88674	100	630	17	1	32	18	5	11	0	0	0	stim006_stimuli_original_animals_fish_2.png	R	0	0	0	438.959113799967	439.159112999914
88774	100	631	17	1	32	19	8	1	0	0	0	stim009_stimuli_original_vehicles_boats_1.png	B	0	0	0	439.359129999997	439.559131599963
88874	100	632	17	1	32	20	14	7	0	0	0	stim015_stimuli_original_vehicles_planes_3.png	J	0	0	0	439.759139799979	439.959134000004
88974	100	633	17	1	32	21	6	12	0	0	0	stim007_stimuli_original_animals_fish_3.png	T	0	0	0	440.159145999933	440.359145399998
89074	100	634	17	1	32	22	13	13	0	0	0	stim014_stimuli_original_vehicles_planes_2.png	U	0	0	0	440.559156699921	440.759156999993
89174	100	635	17	1	32	23	3	3	1	0	0	stim004_stimuli_original_animals_birds_4.png	D	d	441.150978699909	0	440.959168499918	441.159163499949
89274	100	636	17	1	32	24	9	0	0	0	0	stim010_stimuli_original_vehicles_boats_2.png	A	0	0	0	441.359188099974	441.559174599941
89374	100	637	17	1	32	25	3	8	1	0	0	stim004_stimuli_original_animals_birds_4.png	K	0	0	0	441.759195799939	441.959184699925
89474	100	638	17	1	32	26	10	10	0	0	0	stim011_stimuli_original_vehicles_boats_3.png	Q	0	0	0	442.159195799963	442.359199299943
89574	100	639	17	1	32	27	7	5	0	0	0	stim008_stimuli_original_animals_fish_4.png	F	0	0	0	442.559210899984	442.759204400005
89674	100	640	17	1	32	28	1	13	0	1	0	stim002_stimuli_original_animals_birds_2.png	U	0	0	0	442.959220399964	443.159217800014
89774	100	641	17	1	32	29	12	4	0	0	0	stim013_stimuli_original_vehicles_planes_1.png	E	0	0	0	443.359228799934	443.559221799951
89874	100	642	17	1	32	30	11	13	0	1	1	stim012_stimuli_original_vehicles_boats_4.png	U	0	0	0	443.759239499923	443.959241500008
89974	100	643	17	1	32	31	0	14	0	0	0	stim001_stimuli_original_animals_birds_1.png	V	d	444.151818400016	1	444.159263000009	444.359252099996
90074	100	644	17	1	32	32	15	9	0	0	0	stim016_stimuli_original_vehicles_planes_4.png	L	0	0	0	444.559260600014	444.759261899977
90174	100	645	17	1	32	33	3	6	0	0	0	stim004_stimuli_original_animals_birds_4.png	G	0	0	0	444.959272000007	445.159272499965
90274	100	646	17	1	32	34	4	15	0	0	0	stim005_stimuli_original_animals_fish_1.png	Y	0	0	0	445.359283700003	445.559285899973
90374	100	647	17	1	32	35	2	2	0	0	0	stim003_stimuli_original_animals_birds_3.png	C	0	0	0	445.759317299933	445.959294599947
92028.25	100	648	18	0	34	0	9	12	0	0	0	stim010_stimuli_original_vehicles_boats_2.png	T	0	0	0	452.376121899928	452.576114499941
92128.25	100	649	18	0	34	1	6	6	0	0	0	stim007_stimuli_original_animals_fish_3.png	G	0	0	0	452.776126799989	452.976124399924
92228.25	100	650	18	0	34	2	15	9	0	0	0	stim016_stimuli_original_vehicles_planes_4.png	L	0	0	0	453.17613659997	453.37613479991
92328.25	100	651	18	0	34	3	8	1	0	0	0	stim009_stimuli_original_vehicles_boats_1.png	B	0	0	0	453.576166299987	453.776147399913
92428.25	100	652	18	0	34	4	4	0	0	0	0	stim005_stimuli_original_animals_fish_1.png	A	0	0	0	453.976158999954	454.176160099916
92528.25	100	653	18	0	34	5	5	8	0	0	0	stim006_stimuli_original_animals_fish_2.png	K	0	0	0	454.376168799936	454.576167099993
92628.25	100	654	18	0	34	6	0	2	0	0	0	stim001_stimuli_original_animals_birds_1.png	C	0	0	0	454.776183299953	454.976180099999
92728.25	100	655	18	0	34	7	7	4	0	0	0	stim008_stimuli_original_animals_fish_4.png	E	0	0	0	455.176190299913	455.376191599993
92828.25	100	656	18	0	34	8	13	5	0	0	0	stim014_stimuli_original_vehicles_planes_2.png	F	0	0	0	455.576200100011	455.776200399967
92928.25	100	657	18	0	34	9	4	7	1	1	0	stim005_stimuli_original_animals_fish_1.png	J	0	0	0	455.976211000001	456.176211099955
93028.25	100	658	18	0	34	10	2	14	0	0	0	stim003_stimuli_original_animals_birds_3.png	V	0	0	0	456.376222599996	456.576220799936
93128.25	100	659	18	0	34	11	4	7	1	1	1	stim005_stimuli_original_animals_fish_1.png	J	0	0	0	456.776233399985	456.976230399916
93228.25	100	660	18	0	34	12	11	10	0	0	0	stim012_stimuli_original_vehicles_boats_4.png	Q	d	457.368033299921	1	457.176241899957	457.37624579994
93328.25	100	661	18	0	34	13	3	15	0	0	0	stim004_stimuli_original_animals_birds_4.png	Y	0	0	0	457.576255699969	457.776252200012
93428.25	100	662	18	0	34	14	10	13	0	0	0	stim011_stimuli_original_vehicles_boats_3.png	U	0	0	0	457.976290999912	458.1762629
93528.25	100	663	18	0	34	15	12	3	0	0	0	stim013_stimuli_original_vehicles_planes_1.png	D	0	0	0	458.376276099938	458.576274799998
93628.25	100	664	18	0	34	16	1	11	0	0	0	stim002_stimuli_original_animals_birds_2.png	R	0	0	0	458.776289099944	458.976284999982
93728.25	100	665	18	0	34	17	14	7	0	0	0	stim015_stimuli_original_vehicles_planes_3.png	J	0	0	0	459.176300599938	459.376296699978
93828.25	100	666	18	0	34	18	7	14	0	0	0	stim008_stimuli_original_animals_fish_4.png	V	d	459.768105799914	0	459.57631299994	459.77630779997
93928.25	100	667	18	0	34	19	11	1	0	0	0	stim012_stimuli_original_vehicles_boats_4.png	B	0	0	0	459.976319300011	460.17631739995
94028.25	100	668	18	0	34	20	3	12	0	0	0	stim004_stimuli_original_animals_birds_4.png	T	0	0	0	460.376332599903	460.576331099961
94128.25	100	669	18	0	34	21	13	10	0	0	0	stim014_stimuli_original_vehicles_planes_2.png	Q	0	0	0	460.776341199991	460.976340399939
94228.25	100	670	18	0	34	22	15	3	0	0	0	stim016_stimuli_original_vehicles_planes_4.png	D	0	0	0	461.176351799979	461.376350999926
94328.25	100	671	18	0	34	23	10	11	0	0	0	stim011_stimuli_original_vehicles_boats_3.png	R	0	0	0	461.576362499967	461.776360699907
94428.5	100	672	18	0	34	24	7	4	1	1	0	stim008_stimuli_original_animals_fish_4.png	E	d	461.968946899986	0	461.976373699959	462.176374499919
94528.5	100	673	18	0	34	25	14	2	0	0	0	stim015_stimuli_original_vehicles_planes_3.png	C	0	0	0	462.376385099953	462.576384200016
94628.5	100	674	18	0	34	26	7	4	1	1	1	stim008_stimuli_original_animals_fish_4.png	E	0	0	0	462.776406499906	462.976396400016
94728.5	100	675	18	0	34	27	5	13	0	0	0	stim006_stimuli_original_animals_fish_2.png	U	0	0	0	463.176419899915	463.376418299973
94828.5	100	676	18	0	34	28	4	7	0	0	0	stim005_stimuli_original_animals_fish_1.png	J	0	0	0	463.576428700006	463.77643019997
94928.5	100	677	18	0	34	29	2	0	0	0	0	stim003_stimuli_original_animals_birds_3.png	A	0	0	0	463.976437899983	464.176437599934
95028.5	100	678	18	0	34	30	8	5	0	0	0	stim009_stimuli_original_vehicles_boats_1.png	F	0	0	0	464.376449299976	464.576448699925
95128.5	100	679	18	0	34	31	0	4	0	0	0	stim001_stimuli_original_animals_birds_1.png	E	0	0	0	464.776460999972	464.976459899917
95228.5	100	680	18	0	34	32	1	8	0	0	0	stim002_stimuli_original_animals_birds_2.png	K	0	0	0	465.17647029995	465.376469400013
95328.5	100	681	18	0	34	33	9	15	0	0	0	stim010_stimuli_original_vehicles_boats_2.png	Y	d	465.581830499927	0	465.576480999938	465.77648130001
95428.5	100	682	18	0	34	34	6	6	0	0	0	stim007_stimuli_original_animals_fish_3.png	G	0	0	0	465.976491399924	466.176485699951
95528.5	100	683	18	0	34	35	12	9	0	0	0	stim013_stimuli_original_vehicles_planes_1.png	L	0	0	0	466.376563499914	466.576514899964
96195	100	684	19	1	17	0	5	3	0	0	0	stim006_stimuli_original_animals_fish_2.png	D	0	0	0	469.043272099923	469.243240099982
96295	100	685	19	1	17	1	10	5	0	0	0	stim011_stimuli_original_vehicles_boats_3.png	F	0	0	0	469.443253399921	469.643250899971
96395	100	686	19	1	17	2	15	13	0	0	0	stim016_stimuli_original_vehicles_planes_4.png	U	0	0	0	469.843263199902	470.043262499967
96495	100	687	19	1	17	3	6	0	0	0	0	stim007_stimuli_original_animals_fish_3.png	A	0	0	0	470.243273	470.443277399987
96595	100	688	19	1	17	4	13	4	1	0	0	stim014_stimuli_original_vehicles_planes_2.png	E	0	0	0	470.643288899912	470.843284899951
96695	100	689	19	1	17	5	9	9	0	0	0	stim010_stimuli_original_vehicles_boats_2.png	L	0	0	0	471.043324299972	471.243294999935
96795	100	690	19	1	17	6	13	11	1	0	0	stim014_stimuli_original_vehicles_planes_2.png	R	0	0	0	471.443304899964	471.643323399941
96895	100	691	19	1	17	7	8	1	0	0	0	stim009_stimuli_original_vehicles_boats_1.png	B	0	0	0	471.843318399973	472.043316999916
96995	100	692	19	1	17	8	12	10	0	0	0	stim013_stimuli_original_vehicles_planes_1.png	Q	0	0	0	472.243326699943	472.443327599904
97095	100	693	19	1	17	9	7	12	0	0	0	stim008_stimuli_original_animals_fish_4.png	T	0	0	0	472.643340199953	472.843337400001
97195	100	694	19	1	17	10	14	9	0	1	0	stim015_stimuli_original_vehicles_planes_3.png	L	0	0	0	473.043368799961	473.243348199991
97295	100	695	19	1	17	11	2	7	0	0	0	stim003_stimuli_original_animals_birds_3.png	J	0	0	0	473.443361799931	473.643370699952
97395	100	696	19	1	17	12	4	9	0	1	1	stim005_stimuli_original_animals_fish_1.png	L	0	0	0	473.843368400005	474.04336989997
97495	100	697	19	1	17	13	1	14	0	0	0	stim002_stimuli_original_animals_birds_2.png	V	0	0	0	474.243387599941	474.443379299948
97595	100	698	19	1	17	14	3	6	0	0	0	stim004_stimuli_original_animals_birds_4.png	G	0	0	0	474.643392700003	474.843388199923
97695	100	699	19	1	17	15	11	15	0	0	0	stim012_stimuli_original_vehicles_boats_4.png	Y	0	0	0	475.043401499977	475.24339879991
97795.25	100	700	19	1	17	16	13	8	0	0	0	stim014_stimuli_original_vehicles_planes_2.png	K	0	0	0	475.443413299974	475.643411299912
97895.25	100	701	19	1	17	17	0	2	0	0	0	stim001_stimuli_original_animals_birds_1.png	C	0	0	0	475.843447199906	476.043420700007
97995.25	100	702	19	1	17	18	2	0	0	0	0	stim003_stimuli_original_animals_birds_3.png	A	0	0	0	476.243438099977	476.443431699998
98095.25	100	703	19	1	17	19	8	13	0	0	0	stim009_stimuli_original_vehicles_boats_1.png	U	0	0	0	476.643443899928	476.843443899998
98195.25	100	704	19	1	17	20	15	11	0	0	0	stim016_stimuli_original_vehicles_planes_4.png	R	0	0	0	477.043455499923	477.243452099967
98295.25	100	705	19	1	17	21	6	3	0	0	0	stim007_stimuli_original_animals_fish_3.png	D	0	0	0	477.443465399905	477.643463299959
98395.25	100	706	19	1	17	22	14	1	0	0	0	stim015_stimuli_original_vehicles_planes_3.png	B	0	0	0	477.843477199902	478.043474699953
98495.25	100	707	19	1	17	23	9	4	1	0	0	stim010_stimuli_original_vehicles_boats_2.png	E	d	478.445832600002	0	478.243474499905	478.443477499997
98595.25	100	708	19	1	17	24	7	2	0	0	0	stim008_stimuli_original_animals_fish_4.png	C	0	0	0	478.643487099907	478.843487299979
98695.25	100	709	19	1	17	25	9	14	1	0	0	stim010_stimuli_original_vehicles_boats_2.png	V	0	0	0	479.043500799919	479.243510599947
98795.25	100	710	19	1	17	26	12	7	0	0	0	stim013_stimuli_original_vehicles_planes_1.png	J	0	0	0	479.443514299928	479.643507599947
98895.25	100	711	19	1	17	27	10	12	0	0	0	stim011_stimuli_original_vehicles_boats_3.png	T	0	0	0	479.843519099988	480.043517999933
98995.25	100	712	19	1	17	28	1	8	0	0	0	stim002_stimuli_original_animals_birds_2.png	K	0	0	0	480.243530899985	480.443528999924
99095.25	100	713	19	1	17	29	11	13	0	1	0	stim012_stimuli_original_vehicles_boats_4.png	U	0	0	0	480.64353989996	480.843542299932
99195.25	100	714	19	1	17	30	9	9	0	0	0	stim010_stimuli_original_vehicles_boats_2.png	L	0	0	0	481.043552599964	481.243551899912
99295.25	100	715	19	1	17	31	4	13	0	1	1	stim005_stimuli_original_animals_fish_1.png	U	0	0	0	481.443562399945	481.643573399982
99395.25	100	716	19	1	17	32	0	6	0	0	0	stim001_stimuli_original_animals_birds_1.png	G	0	0	0	481.843584399903	482.043599399971
99495.25	100	717	19	1	17	33	13	15	0	0	0	stim014_stimuli_original_vehicles_planes_2.png	Y	0	0	0	482.243581699906	482.443581499974
99595.25	100	718	19	1	17	34	5	10	0	0	0	stim006_stimuli_original_animals_fish_2.png	Q	0	0	0	482.643593100016	482.843593599973
99695.25	100	719	19	1	17	35	3	5	0	0	0	stim004_stimuli_original_animals_birds_4.png	F	0	0	0	483.043604900013	483.243603399955
100191	100	720	20	0	37	0	1	6	0	0	0	stim002_stimuli_original_animals_birds_2.png	G	0	0	0	485.027023899951	485.227004999993
100291	100	721	20	0	37	1	5	3	0	0	0	stim006_stimuli_original_animals_fish_2.png	D	0	0	0	485.427017199923	485.627012699959
100391	100	722	20	0	37	2	2	15	0	0	0	stim003_stimuli_original_animals_birds_3.png	Y	0	0	0	485.82702289999	486.027026999975
100491	100	723	20	0	37	3	3	4	0	0	0	stim004_stimuli_original_animals_birds_4.png	E	0	0	0	486.227034599986	486.427034899942
100591	100	724	20	0	37	4	11	8	0	0	0	stim012_stimuli_original_vehicles_boats_4.png	K	0	0	0	486.627045199974	486.827043799916
100691	100	725	20	0	37	5	15	2	0	0	0	stim016_stimuli_original_vehicles_planes_4.png	C	0	0	0	487.027077100007	487.227043599938
100791	100	726	20	0	37	6	8	5	0	0	0	stim009_stimuli_original_vehicles_boats_1.png	F	0	0	0	487.427055099979	487.627063899999
100891	100	727	20	0	37	7	13	9	0	0	0	stim014_stimuli_original_vehicles_planes_2.png	L	0	0	0	487.827077399939	488.027085899957
100991	100	728	20	0	37	8	10	0	0	0	0	stim011_stimuli_original_vehicles_boats_3.png	A	0	0	0	488.227077299962	488.42707659991
101091	100	729	20	0	37	9	1	10	1	0	0	stim002_stimuli_original_animals_birds_2.png	Q	0	0	0	488.627086899942	488.827089399914
101191	100	730	20	0	37	10	4	2	0	1	0	stim005_stimuli_original_animals_fish_1.png	C	0	0	0	489.027098999941	489.227098200005
101291	100	731	20	0	37	11	1	14	1	0	1	stim002_stimuli_original_animals_birds_2.png	V	0	0	0	489.427109899931	489.627125700004
101391	100	732	20	0	37	12	12	2	0	1	0	stim013_stimuli_original_vehicles_planes_1.png	C	d	490.018939299975	1	489.827148400014	490.027150299982
101491	100	733	20	0	37	13	6	7	0	0	0	stim007_stimuli_original_animals_fish_3.png	J	0	0	0	490.227158299997	490.427155099926
101591	100	734	20	0	37	14	14	11	0	0	0	stim015_stimuli_original_vehicles_planes_3.png	R	0	0	0	490.627171300002	490.827164199902
101691	100	735	20	0	37	15	0	12	0	0	0	stim001_stimuli_original_animals_birds_1.png	T	0	0	0	491.027181199985	491.227175600012
101791	100	736	20	0	37	16	7	13	0	0	0	stim008_stimuli_original_animals_fish_4.png	U	0	0	0	491.427188999951	491.627187300008
101891	100	737	20	0	37	17	9	1	0	0	0	stim010_stimuli_original_vehicles_boats_2.png	B	0	0	0	491.827200999949	492.02719719999
101991	100	738	20	0	37	18	1	9	0	0	0	stim002_stimuli_original_animals_birds_2.png	L	0	0	0	492.22721859999	492.4271954
102091	100	739	20	0	37	19	13	7	0	0	0	stim014_stimuli_original_vehicles_planes_2.png	J	0	0	0	492.627219299902	492.827215799945
102191	100	740	20	0	37	20	12	0	0	0	0	stim013_stimuli_original_vehicles_planes_1.png	A	0	0	0	493.027233199915	493.227228299947
102291	100	741	20	0	37	21	11	14	0	0	0	stim012_stimuli_original_vehicles_boats_4.png	V	0	0	0	493.427244499908	493.62724079995
102391	100	742	20	0	37	22	7	6	0	0	0	stim008_stimuli_original_animals_fish_4.png	G	0	0	0	493.827250799979	494.027246799902
102491	100	743	20	0	37	23	2	12	1	0	0	stim003_stimuli_original_animals_birds_3.png	T	0	0	0	494.22726179997	494.42723469995
102591	100	744	20	0	37	24	14	1	0	1	0	stim015_stimuli_original_vehicles_planes_3.png	B	0	0	0	494.627270999947	494.827269600006
102691	100	745	20	0	37	25	2	4	1	0	1	stim003_stimuli_original_animals_birds_3.png	E	0	0	0	495.027292999905	495.227279599989
102791	100	746	20	0	37	26	10	1	0	1	0	stim011_stimuli_original_vehicles_boats_3.png	B	0	0	0	495.427292299923	495.627291499986
102891	100	747	20	0	37	27	0	10	0	0	0	stim001_stimuli_original_animals_birds_1.png	Q	0	0	0	495.82730419992	496.027299399953
102991	100	748	20	0	37	28	9	13	0	0	0	stim010_stimuli_original_vehicles_boats_2.png	U	0	0	0	496.227317199926	496.427313899971
103091	100	749	20	0	37	29	5	8	0	0	0	stim006_stimuli_original_animals_fish_2.png	K	0	0	0	496.627321799984	496.827327699983
103191	100	750	20	0	37	30	2	15	0	0	0	stim003_stimuli_original_animals_birds_3.png	Y	0	0	0	497.027338999906	497.227337299963
103291	100	751	20	0	37	31	8	11	0	0	0	stim009_stimuli_original_vehicles_boats_1.png	R	0	0	0	497.427349300007	497.627332999953
103391	100	752	20	0	37	32	4	3	0	0	0	stim005_stimuli_original_animals_fish_1.png	D	0	0	0	497.827349699917	498.027358099935
103491	100	753	20	0	37	33	15	2	0	0	0	stim016_stimuli_original_vehicles_planes_4.png	C	0	0	0	498.227348099928	498.427343499963
103591	100	754	20	0	37	34	3	5	0	0	0	stim004_stimuli_original_animals_birds_4.png	F	0	0	0	498.627355600009	498.827353199944
103691	100	755	20	0	37	35	6	1	0	0	0	stim007_stimuli_original_animals_fish_3.png	B	0	0	0	499.027368100011	499.227366399951
104328.5	100	756	21	1	41	0	8	8	0	0	0	stim009_stimuli_original_vehicles_boats_1.png	K	0	0	0	501.577426899923	501.777457199991
104428.5	100	757	21	1	41	1	5	14	0	0	0	stim006_stimuli_original_animals_fish_2.png	V	0	0	0	501.977468399913	502.177471700008
104528.75	100	758	21	1	41	2	15	9	0	0	0	stim016_stimuli_original_vehicles_planes_4.png	L	0	0	0	502.377479799907	502.577475999948
104628.75	100	759	21	1	41	3	13	11	0	0	0	stim014_stimuli_original_vehicles_planes_2.png	R	0	0	0	502.777489200002	502.977493399987
104728.75	100	760	21	1	41	4	9	1	0	0	0	stim010_stimuli_original_vehicles_boats_2.png	B	0	0	0	503.177501400001	503.377498799935
104828.75	100	761	21	1	41	5	0	4	0	0	0	stim001_stimuli_original_animals_birds_1.png	E	0	0	0	503.57751689991	503.777512299945
104928.75	100	762	21	1	41	6	12	3	1	0	0	stim013_stimuli_original_vehicles_planes_1.png	D	0	0	0	503.977522799978	504.177491799928
105028.75	100	763	21	1	41	7	3	8	0	1	0	stim004_stimuli_original_animals_birds_4.png	K	0	0	0	504.377551099984	504.577529800008
105128.75	100	764	21	1	41	8	12	7	1	0	0	stim013_stimuli_original_vehicles_planes_1.png	J	0	0	0	504.777547699981	504.977539399988
105228.75	100	765	21	1	41	9	7	8	0	1	1	stim008_stimuli_original_animals_fish_4.png	K	d	505.36934669991	1	505.177560199983	505.377557299915
105328.75	100	766	21	1	41	10	14	13	0	0	0	stim015_stimuli_original_vehicles_planes_3.png	U	0	0	0	505.577564199921	505.777563799988
105428.75	100	767	21	1	41	11	2	6	0	0	0	stim003_stimuli_original_animals_birds_3.png	G	0	0	0	505.977576999925	506.177573299967
105528.75	100	768	21	1	41	12	11	12	0	0	0	stim012_stimuli_original_vehicles_boats_4.png	T	0	0	0	506.377594399964	506.577583099948
105628.75	100	769	21	1	41	13	1	10	0	0	0	stim002_stimuli_original_animals_birds_2.png	Q	0	0	0	506.777596100001	506.977604899905
105728.75	100	770	21	1	41	14	12	15	0	0	0	stim013_stimuli_original_vehicles_planes_1.png	Y	0	0	0	507.177606199984	507.377609399962
105828.75	100	771	21	1	41	15	10	5	0	0	0	stim011_stimuli_original_vehicles_boats_3.png	F	d	507.769406499923	0	507.577618099982	507.77761739993
105928.75	100	772	21	1	41	16	6	2	0	0	0	stim007_stimuli_original_animals_fish_3.png	C	0	0	0	507.977636299911	508.177626499906
106028.75	100	773	21	1	41	17	4	0	0	0	0	stim005_stimuli_original_animals_fish_1.png	A	0	0	0	508.377676300006	508.577642399934
106128.75	100	774	21	1	41	18	0	4	0	0	0	stim001_stimuli_original_animals_birds_1.png	E	0	0	0	508.777629599907	508.977649100008
106228.75	100	775	21	1	41	19	2	6	0	0	0	stim003_stimuli_original_animals_birds_3.png	G	0	0	0	509.177640200011	509.377671499969
106328.75	100	776	21	1	41	20	5	10	0	0	0	stim006_stimuli_original_animals_fish_2.png	Q	0	0	0	509.577648699982	509.777651299955
106428.75	100	777	21	1	41	21	15	12	0	0	0	stim016_stimuli_original_vehicles_planes_4.png	T	0	0	0	509.977681199904	510.177659299923
106528.75	100	778	21	1	41	22	10	1	0	0	0	stim011_stimuli_original_vehicles_boats_3.png	B	0	0	0	510.377673599985	510.57767109992
106628.75	100	779	21	1	41	23	12	11	0	0	0	stim013_stimuli_original_vehicles_planes_1.png	R	0	0	0	510.77768249996	510.977681799908
106728.75	100	780	21	1	41	24	6	2	0	0	0	stim007_stimuli_original_animals_fish_3.png	C	0	0	0	511.177693499951	511.377735599992
106828.75	100	781	21	1	41	25	13	14	0	0	0	stim014_stimuli_original_vehicles_planes_2.png	V	0	0	0	511.577716899919	511.777715199976
106928.75	100	782	21	1	41	26	8	7	1	0	0	stim009_stimuli_original_vehicles_boats_1.png	J	0	0	0	511.977733799955	512.177724099951
107028.75	100	783	21	1	41	27	7	12	0	1	0	stim008_stimuli_original_animals_fish_4.png	T	0	0	0	512.377745899954	512.577748499927
107128.75	100	784	21	1	41	28	8	3	1	0	0	stim009_stimuli_original_vehicles_boats_1.png	D	0	0	0	512.777750700014	512.977746999939
107228.75	100	785	21	1	41	29	3	12	0	1	1	stim004_stimuli_original_animals_birds_4.png	T	0	0	0	513.177759699989	513.377758499933
107328.75	100	786	21	1	41	30	4	0	0	0	0	stim005_stimuli_original_animals_fish_1.png	A	0	0	0	513.577767599956	513.777773599955
107428.75	100	787	21	1	41	31	1	9	0	0	0	stim002_stimuli_original_animals_birds_2.png	L	0	0	0	513.977785399999	514.177792700008
107528.75	100	788	21	1	41	32	11	13	0	0	0	stim012_stimuli_original_vehicles_boats_4.png	U	0	0	0	514.377790799947	514.577791999909
107628.75	100	789	21	1	41	33	9	15	0	0	0	stim010_stimuli_original_vehicles_boats_2.png	Y	0	0	0	514.777816599933	514.977797599975
107728.75	100	790	21	1	41	34	14	5	0	0	0	stim015_stimuli_original_vehicles_planes_3.png	F	0	0	0	515.177811699919	515.377810699982
107828.75	100	791	21	1	41	35	8	8	0	0	0	stim009_stimuli_original_vehicles_boats_1.png	K	d	515.57040899992	0	515.577823799918	515.777819399955
109074.5	100	792	22	0	13	0	7	13	0	0	0	stim008_stimuli_original_animals_fish_4.png	U	0	0	0	520.56131359993	520.761311899987
109174.5	100	793	22	0	13	1	6	8	0	0	0	stim007_stimuli_original_animals_fish_3.png	K	0	0	0	520.961317699985	521.161314099911
109274.5	100	794	22	0	13	2	11	11	0	0	0	stim012_stimuli_original_vehicles_boats_4.png	R	0	0	0	521.361333000008	521.561323600006
109374.5	100	795	22	0	13	3	9	2	0	0	0	stim010_stimuli_original_vehicles_boats_2.png	C	0	0	0	521.761335399933	521.961320400005
109474.5	100	796	22	0	13	4	14	1	0	0	0	stim015_stimuli_original_vehicles_planes_3.png	B	0	0	0	522.161345699918	522.361346199992
109574.5	100	797	22	0	13	5	10	5	1	1	0	stim011_stimuli_original_vehicles_boats_3.png	F	0	0	0	522.561356899911	522.761355699971
109674.5	100	798	22	0	13	6	2	10	0	0	0	stim003_stimuli_original_animals_birds_3.png	Q	0	0	0	522.961366400006	523.161368099973
109774.5	100	799	22	0	13	7	10	5	1	1	1	stim011_stimuli_original_vehicles_boats_3.png	F	0	0	0	523.361379300011	523.56137729995
109874.5	100	800	22	0	13	8	12	15	0	0	0	stim013_stimuli_original_vehicles_planes_1.png	Y	d	523.953177799936	1	523.761389199994	523.961388799944
