onset	duration	eventnumber	sequencenumber	condition	streamnumber	stimnumber	objectstimnumber	letterstimnumber	objecttarget	lettertarget	is2back	objectstim	letterstim	response	rt	correct	time_stimon	time_stimoff
23896	100	0	0	1	27	0	5	12	0	0	0	stim006_stimuli_original_animals_fish_2.png	T	0	0	0	83.6543534999946	83.85434849991
23996.25	100	1	0	1	27	1	8	4	0	0	0	stim009_stimuli_original_vehicles_boats_1.png	E	0	0	0	84.0548717000056	84.2543501999462
24096	100	2	0	1	27	2	1	6	0	0	0	stim002_stimuli_original_animals_birds_2.png	G	0	0	0	84.4543433999643	84.654341199901
24196	100	3	0	1	27	3	13	8	0	0	0	stim014_stimuli_original_vehicles_planes_2.png	K	0	0	0	84.8543541999534	85.0543775999686
24296	100	4	0	1	27	4	6	13	1	0	0	stim007_stimuli_original_animals_fish_3.png	U	0	0	0	85.2543751999037	85.4543761999812
24396	100	5	0	1	27	5	15	9	0	0	0	stim016_stimuli_original_vehicles_planes_4.png	L	0	0	0	85.6543878999073	85.8544123999309
24496	100	6	0	1	27	6	6	14	1	0	0	stim007_stimuli_original_animals_fish_3.png	V	0	0	0	86.0543950999854	86.2543936999282
24596	100	7	0	1	27	7	14	7	0	1	0	stim015_stimuli_original_vehicles_planes_3.png	J	0	0	0	86.4544189999579	86.6543952999637
24696	100	8	0	1	27	8	7	3	0	0	0	stim008_stimuli_original_animals_fish_4.png	D	0	0	0	86.8544077998959	87.0544049999444
24796	100	9	0	1	27	9	10	7	0	1	1	stim011_stimuli_original_vehicles_boats_3.png	J	0	0	0	87.2544168999884	87.4544154999312
24896	100	10	0	1	27	10	6	11	0	0	0	stim007_stimuli_original_animals_fish_3.png	R	d	87.8462188999401	1	87.6544284999836	87.8544274999294
24996	100	11	0	1	27	11	4	2	0	0	0	stim005_stimuli_original_animals_fish_1.png	C	0	0	0	88.0544426999986	88.2544393999269
25096	100	12	0	1	27	12	0	7	0	0	0	stim001_stimuli_original_animals_birds_1.png	J	0	0	0	88.4544622999383	88.6544489999069
25196	100	13	0	1	27	13	3	15	0	0	0	stim004_stimuli_original_animals_birds_4.png	Y	0	0	0	88.8544615999563	89.0544642999303
25296	100	14	0	1	27	14	2	1	0	0	0	stim003_stimuli_original_animals_birds_3.png	B	0	0	0	89.2544822999043	89.4547454999993
25396	100	15	0	1	27	15	12	10	0	0	0	stim013_stimuli_original_vehicles_planes_1.png	Q	0	0	0	89.6544893999817	89.8544822999975
25496	100	16	0	1	27	16	9	0	0	0	0	stim010_stimuli_original_vehicles_boats_2.png	A	0	0	0	90.0544926999137	90.2544923999812
25596	100	17	0	1	27	17	11	5	0	0	0	stim012_stimuli_original_vehicles_boats_4.png	F	0	0	0	90.4545061999233	90.6544963999186
25696	100	18	0	1	27	18	5	11	0	0	0	stim006_stimuli_original_animals_fish_2.png	R	0	0	0	90.8545119999908	91.0545195000013
25796	100	19	0	1	27	19	0	9	0	0	0	stim001_stimuli_original_animals_birds_1.png	L	0	0	0	91.2545230999822	91.4545230999356
25896	100	20	0	1	27	20	10	12	0	0	0	stim011_stimuli_original_vehicles_boats_3.png	T	0	0	0	91.6545384000055	91.8545329999179
25996	100	21	0	1	27	21	1	2	0	0	0	stim002_stimuli_original_animals_birds_2.png	C	0	0	0	92.0545463999733	92.2545438999077
26096	100	22	0	1	27	22	15	3	0	0	0	stim016_stimuli_original_vehicles_planes_4.png	D	0	0	0	92.4545543999411	92.6545543998946
26196	100	23	0	1	27	23	7	0	0	0	0	stim008_stimuli_original_animals_fish_4.png	A	0	0	0	92.8545655999333	93.0545650999993
26296	100	24	0	1	27	24	2	4	0	0	0	stim003_stimuli_original_animals_birds_3.png	E	0	0	0	93.2546054999111	93.4545816999162
26396	100	25	0	1	27	25	11	6	0	0	0	stim012_stimuli_original_vehicles_boats_4.png	G	0	0	0	93.6545889999252	93.8546089999145
26496	100	26	0	1	27	26	7	10	1	0	0	stim008_stimuli_original_animals_fish_4.png	Q	0	0	0	94.0545982999029	94.254598999978
26596	100	27	0	1	27	27	3	7	0	0	0	stim004_stimuli_original_animals_birds_4.png	J	0	0	0	94.4546113999095	94.6546087999595
26696	100	28	0	1	27	28	7	14	1	0	0	stim008_stimuli_original_animals_fish_4.png	V	0	0	0	94.8546211000066	95.0546203999547
26796	100	29	0	1	27	29	14	6	0	1	0	stim015_stimuli_original_vehicles_planes_3.png	G	0	0	0	95.2546336000087	95.4546305999393
26896.25	100	30	0	1	27	30	9	15	0	0	0	stim010_stimuli_original_vehicles_boats_2.png	Y	d	95.8464307999238	0	95.6546418999787	95.8546663000016
26996.25	100	31	0	1	27	31	13	6	0	1	1	stim014_stimuli_original_vehicles_planes_2.png	G	0	0	0	96.0546539999777	96.2546498999
27096.25	100	32	0	1	27	32	8	13	0	0	0	stim009_stimuli_original_vehicles_boats_1.png	U	0	0	0	96.4546843999997	96.6546620998997
27196.25	100	33	0	1	27	33	6	1	0	0	0	stim007_stimuli_original_animals_fish_3.png	B	0	0	0	96.8546742999461	97.0546718999976
27296.25	100	34	0	1	27	34	4	8	0	0	0	stim005_stimuli_original_animals_fish_1.png	K	0	0	0	97.2546844999306	97.4546826999867
27396.25	100	35	0	1	27	35	12	5	0	0	0	stim013_stimuli_original_vehicles_planes_1.png	F	0	0	0	97.6546948999166	97.854694699985
29154.5	100	36	1	0	30	0	0	12	0	0	0	stim001_stimuli_original_animals_birds_1.png	T	0	0	0	104.688252799911	104.888241799898
29254.5	100	37	1	0	30	1	7	11	0	0	0	stim008_stimuli_original_animals_fish_4.png	R	0	0	0	105.088253699942	105.288254899904
29354.5	100	38	1	0	30	2	3	15	0	0	0	stim004_stimuli_original_animals_birds_4.png	Y	0	0	0	105.488268199959	105.688263899996
29454.5	100	39	1	0	30	3	5	3	0	0	0	stim006_stimuli_original_animals_fish_2.png	D	0	0	0	105.888276499929	106.088257799973
29554.5	100	40	1	0	30	4	4	1	0	0	0	stim005_stimuli_original_animals_fish_1.png	B	0	0	0	106.288285699906	106.488284299965
29654.5	100	41	1	0	30	5	13	10	0	0	0	stim014_stimuli_original_vehicles_planes_2.png	Q	0	0	0	106.688299199915	106.888295599958
29754.5	100	42	1	0	30	6	8	9	1	0	0	stim009_stimuli_original_vehicles_boats_1.png	L	0	0	0	107.088308400009	107.288282499998
29854.5	100	43	1	0	30	7	1	13	0	0	0	stim002_stimuli_original_animals_birds_2.png	U	0	0	0	107.488321399898	107.68833039992
29954.5	100	44	1	0	30	8	8	7	1	0	1	stim009_stimuli_original_vehicles_boats_1.png	J	0	0	0	107.88832909998	108.088326399913
30054.5	100	45	1	0	30	9	14	14	0	0	0	stim015_stimuli_original_vehicles_planes_3.png	V	0	0	0	108.288338799961	108.488341299933
30154.5	100	46	1	0	30	10	10	2	0	0	0	stim011_stimuli_original_vehicles_boats_3.png	C	0	0	0	108.68834829994	108.888349999906
30254.5	100	47	1	0	30	11	9	0	0	0	0	stim010_stimuli_original_vehicles_boats_2.png	A	0	0	0	109.08836449997	109.288359800004
30354.5	100	48	1	0	30	12	8	4	0	1	0	stim009_stimuli_original_vehicles_boats_1.png	E	0	0	0	109.488371199928	109.688375399914
30454.5	100	49	1	0	30	13	6	8	0	0	0	stim007_stimuli_original_animals_fish_3.png	K	0	0	0	109.888384399936	110.088381299982
30554.5	100	50	1	0	30	14	2	4	0	1	0	stim003_stimuli_original_animals_birds_3.png	E	d	110.480179199949	0	110.288393199909	110.488392399973
30654.5	100	51	1	0	30	15	11	6	0	0	0	stim012_stimuli_original_vehicles_boats_4.png	G	0	0	0	110.688416199991	110.888401799952
30754.5	100	52	1	0	30	16	15	5	0	0	0	stim016_stimuli_original_vehicles_planes_4.png	F	0	0	0	111.088415000006	111.288411299931
30854.5	100	53	1	0	30	17	12	4	0	0	0	stim013_stimuli_original_vehicles_planes_1.png	E	0	0	0	111.488424399984	111.688426199951
30954.5	100	54	1	0	30	18	4	12	0	0	0	stim005_stimuli_original_animals_fish_1.png	T	0	0	0	111.888435499975	112.088419299922
31054.5	100	55	1	0	30	19	5	15	0	0	0	stim006_stimuli_original_animals_fish_2.png	Y	0	0	0	112.288451600005	112.488446799922
31154.5	100	56	1	0	30	20	6	11	0	0	0	stim007_stimuli_original_animals_fish_3.png	R	0	0	0	112.688455899945	112.88845530001
31254.5	100	57	1	0	30	21	4	2	1	0	0	stim005_stimuli_original_animals_fish_1.png	C	0	0	0	113.088467099937	113.2884662
31354.5	100	58	1	0	30	22	8	6	0	0	0	stim009_stimuli_original_vehicles_boats_1.png	G	d	113.492713499931	0	113.488483899971	113.688483399921
31454.5	100	59	1	0	30	23	4	8	1	0	1	stim005_stimuli_original_animals_fish_1.png	K	0	0	0	113.888500500005	114.088492199895
31554.5	100	60	1	0	30	24	0	9	0	0	0	stim001_stimuli_original_animals_birds_1.png	L	0	0	0	114.288506299956	114.488504799898
31654.5	100	61	1	0	30	25	2	10	0	0	0	stim003_stimuli_original_animals_birds_3.png	Q	0	0	0	114.688515299931	114.888514899998
31754.5	100	62	1	0	30	26	14	14	0	0	0	stim015_stimuli_original_vehicles_planes_3.png	V	0	0	0	115.088522999897	115.288524099975
31854.5	100	63	1	0	30	27	7	8	0	1	0	stim008_stimuli_original_animals_fish_4.png	K	0	0	0	115.488539999933	115.688535899972
31954.5	100	64	1	0	30	28	13	1	0	0	0	stim014_stimuli_original_vehicles_planes_2.png	B	0	0	0	115.8885478999	116.088545099949
32054.5	100	65	1	0	30	29	9	8	0	1	0	stim010_stimuli_original_vehicles_boats_2.png	K	0	0	0	116.288558500004	116.488547799992
32154.5	100	66	1	0	30	30	10	13	0	0	0	stim011_stimuli_original_vehicles_boats_3.png	U	0	0	0	116.688552799984	116.888566399924
32254.5	100	67	1	0	30	31	1	4	0	0	0	stim002_stimuli_original_animals_birds_2.png	E	0	0	0	117.088575299946	117.288579699933
32354.5	100	68	1	0	30	32	3	5	0	0	0	stim004_stimuli_original_animals_birds_4.png	F	0	0	0	117.488589299959	117.68857759994
32454.5	100	69	1	0	30	33	15	3	0	0	0	stim016_stimuli_original_vehicles_planes_4.png	D	0	0	0	117.888600799954	118.088606199948
32554.5	100	70	1	0	30	34	11	7	0	0	0	stim012_stimuli_original_vehicles_boats_4.png	J	0	0	0	118.288608799921	118.488611499895
32654.5	100	71	1	0	30	35	12	0	0	0	0	stim013_stimuli_original_vehicles_planes_1.png	A	0	0	0	118.688623599941	118.888621899998
34013	100	72	2	1	32	0	4	9	0	0	0	stim005_stimuli_original_animals_fish_1.png	L	0	0	0	124.122072999948	124.322068799986
34113	100	73	2	1	32	1	5	8	0	0	0	stim006_stimuli_original_animals_fish_2.png	K	0	0	0	124.522082099924	124.722082099994
34213	100	74	2	1	32	2	13	1	0	0	0	stim014_stimuli_original_vehicles_planes_2.png	B	0	0	0	124.922090699896	125.12209249998
34313	100	75	2	1	32	3	15	5	0	0	0	stim016_stimuli_original_vehicles_planes_4.png	F	0	0	0	125.322103899904	125.522098899935
34413	100	76	2	1	32	4	12	6	0	0	0	stim013_stimuli_original_vehicles_planes_1.png	G	0	0	0	125.722112399992	125.922110999934
34513	100	77	2	1	32	5	11	3	0	0	0	stim012_stimuli_original_vehicles_boats_4.png	D	0	0	0	126.122122899978	126.322122799931
34613	100	78	2	1	32	6	9	12	0	0	0	stim010_stimuli_original_vehicles_boats_2.png	T	0	0	0	126.522133499966	126.722133899922
34713	100	79	2	1	32	7	6	13	0	0	0	stim007_stimuli_original_animals_fish_3.png	U	0	0	0	126.922143899952	127.1221584999
34813	100	80	2	1	32	8	14	15	1	0	0	stim015_stimuli_original_vehicles_planes_3.png	Y	0	0	0	127.322153099929	127.522154599894
34913	100	81	2	1	32	9	0	10	0	0	0	stim001_stimuli_original_animals_birds_1.png	Q	0	0	0	127.722167199943	127.922164299991
35013	100	82	2	1	32	10	14	14	1	0	0	stim015_stimuli_original_vehicles_planes_3.png	V	0	0	0	128.12217769993	128.322175999987
35113	100	83	2	1	32	11	2	0	0	0	0	stim003_stimuli_original_animals_birds_3.png	A	0	0	0	128.52218510001	128.722188199987
35213	100	84	2	1	32	12	7	9	0	1	0	stim008_stimuli_original_animals_fish_4.png	L	0	0	0	128.922197899898	129.12219559995
35313	100	85	2	1	32	13	10	4	0	0	0	stim011_stimuli_original_vehicles_boats_3.png	E	0	0	0	129.322227299912	129.52221179998
35413	100	86	2	1	32	14	1	9	0	1	1	stim002_stimuli_original_animals_birds_2.png	L	0	0	0	129.722218499985	129.922218399937
35513	100	87	2	1	32	15	14	2	0	0	0	stim015_stimuli_original_vehicles_planes_3.png	C	d	130.122601599898	1	130.122229699977	130.32222969993
35613	100	88	2	1	32	16	3	11	0	0	0	stim004_stimuli_original_animals_birds_4.png	R	0	0	0	130.522240899969	130.722244899953
35713	100	89	2	1	32	17	8	7	0	0	0	stim009_stimuli_original_vehicles_boats_1.png	J	0	0	0	130.922249799944	131.122249799897
35813	100	90	2	1	32	18	7	8	0	0	0	stim008_stimuli_original_animals_fish_4.png	K	0	0	0	131.322261699941	131.522259899997
35913	100	91	2	1	32	19	11	3	0	0	0	stim012_stimuli_original_vehicles_boats_4.png	D	0	0	0	131.722272099927	131.922276699916
36013	100	92	2	1	32	20	2	14	0	0	0	stim003_stimuli_original_animals_birds_3.png	V	0	0	0	132.12228869996	132.32228209998
36113	100	93	2	1	32	21	9	1	1	0	0	stim010_stimuli_original_vehicles_boats_2.png	B	0	0	0	132.52229829994	132.722292699968
36213	100	94	2	1	32	22	4	10	0	0	0	stim005_stimuli_original_animals_fish_1.png	Q	0	0	0	132.9223051999	133.122302699951
36313	100	95	2	1	32	23	9	7	1	0	0	stim010_stimuli_original_vehicles_boats_2.png	J	0	0	0	133.322314199992	133.522316799965
36413	100	96	2	1	32	24	0	2	0	0	0	stim001_stimuli_original_animals_birds_1.png	C	0	0	0	133.722324399976	133.922324799933
36513	100	97	2	1	32	25	14	14	0	1	0	stim015_stimuli_original_vehicles_planes_3.png	V	0	0	0	134.12233449996	134.322336499928
36613	100	98	2	1	32	26	10	0	0	0	0	stim011_stimuli_original_vehicles_boats_3.png	A	0	0	0	134.522347599966	134.722348999931
36713	100	99	2	1	32	27	15	14	0	1	1	stim016_stimuli_original_vehicles_planes_4.png	V	0	0	0	134.922357499949	135.122360899928
36813	100	100	2	1	32	28	13	6	0	0	0	stim014_stimuli_original_vehicles_planes_2.png	G	0	0	0	135.322369099944	135.522367900005
36913	100	101	2	1	32	29	12	9	0	0	0	stim013_stimuli_original_vehicles_planes_1.png	L	0	0	0	135.722378999926	135.922378899995
37013	100	102	2	1	32	30	3	11	0	0	0	stim004_stimuli_original_animals_birds_4.png	R	0	0	0	136.122388599906	136.322389499983
37113	100	103	2	1	32	31	6	12	0	0	0	stim007_stimuli_original_animals_fish_3.png	T	0	0	0	136.522400999907	136.722400399973
37213	100	104	2	1	32	32	5	15	0	0	0	stim006_stimuli_original_animals_fish_2.png	Y	0	0	0	136.922414199915	137.12241229997
37313	100	105	2	1	32	33	1	13	0	0	0	stim002_stimuli_original_animals_birds_2.png	U	0	0	0	137.322423899896	137.522421599948
37413	100	106	2	1	32	34	8	5	0	0	0	stim009_stimuli_original_vehicles_boats_1.png	F	0	0	0	137.72243319999	137.922430699924
37513	100	107	2	1	32	35	9	4	0	0	0	stim010_stimuli_original_vehicles_boats_2.png	E	0	0	0	138.122444699984	138.322443899931
39388	100	108	3	0	15	0	5	12	0	0	0	stim006_stimuli_original_animals_fish_2.png	T	0	0	0	145.622681899928	145.822668999899
39488	100	109	3	0	15	1	13	9	0	0	0	stim014_stimuli_original_vehicles_planes_2.png	L	0	0	0	146.022680099937	146.222683399916
39588	100	110	3	0	15	2	2	6	0	0	0	stim003_stimuli_original_animals_birds_3.png	G	0	0	0	146.422690299922	146.622694099904
39688	100	111	3	0	15	3	9	7	0	0	0	stim010_stimuli_original_vehicles_boats_2.png	J	0	0	0	146.822701899917	147.022705199895
39788	100	112	3	0	15	4	8	8	0	0	0	stim009_stimuli_original_vehicles_boats_1.png	K	0	0	0	147.22271719994	147.422723499942
39888	100	113	3	0	15	5	14	3	0	0	0	stim015_stimuli_original_vehicles_planes_3.png	D	0	0	0	147.622725099907	147.822722999961
39988	100	114	3	0	15	6	3	13	0	0	0	stim004_stimuli_original_animals_birds_4.png	U	0	0	0	148.022740499931	148.22273249994
40088	100	115	3	0	15	7	4	4	0	0	0	stim005_stimuli_original_animals_fish_1.png	E	0	0	0	148.42274509999	148.622746499954
40188	100	116	3	0	15	8	6	10	0	0	0	stim007_stimuli_original_animals_fish_3.png	Q	0	0	0	148.822759000002	149.022741499939
40288	100	117	3	0	15	9	1	0	0	0	0	stim002_stimuli_original_animals_birds_2.png	A	0	0	0	149.222772100009	149.422763599898
40388	100	118	3	0	15	10	3	5	1	0	0	stim004_stimuli_original_animals_birds_4.png	F	0	0	0	149.622778799967	149.822776599904
40488	100	119	3	0	15	11	0	15	0	0	0	stim001_stimuli_original_animals_birds_1.png	Y	0	0	0	150.022786999936	150.222777899937
40588	100	120	3	0	15	12	3	12	1	1	1	stim004_stimuli_original_animals_birds_4.png	T	0	0	0	150.422798899934	150.622800099896
40688	100	121	3	0	15	13	11	1	0	0	0	stim012_stimuli_original_vehicles_boats_4.png	B	d	150.815382599947	1	150.822813999956	151.02280809998
40788.25	100	122	3	0	15	14	10	12	0	1	0	stim011_stimuli_original_vehicles_boats_3.png	T	0	0	0	151.222819799907	151.42282629991
40888.25	100	123	3	0	15	15	7	2	0	0	0	stim008_stimuli_original_animals_fish_4.png	C	0	0	0	151.622831699904	151.82283119997
40988.25	100	124	3	0	15	16	12	11	0	0	0	stim013_stimuli_original_vehicles_planes_1.png	R	0	0	0	152.022844599909	152.222867999924
41088.25	100	125	3	0	15	17	15	14	0	0	0	stim016_stimuli_original_vehicles_planes_4.png	V	0	0	0	152.422852499993	152.622852499946
41188.25	100	126	3	0	15	18	14	15	0	0	0	stim015_stimuli_original_vehicles_planes_3.png	Y	0	0	0	152.822846699972	153.022866499959
41288.25	100	127	3	0	15	19	11	12	0	0	0	stim012_stimuli_original_vehicles_boats_4.png	T	0	0	0	153.22287269996	153.42287219991
41388.25	100	128	3	0	15	20	2	7	0	0	0	stim003_stimuli_original_animals_birds_3.png	J	0	0	0	153.622885699966	153.822883999906
41488.25	100	129	3	0	15	21	12	10	1	0	0	stim013_stimuli_original_vehicles_planes_1.png	Q	0	0	0	154.022896399954	154.222903599963
41588.25	100	130	3	0	15	22	1	11	0	0	0	stim002_stimuli_original_animals_birds_2.png	R	0	0	0	154.422911899979	154.622909599915
41688.25	100	131	3	0	15	23	12	3	1	1	1	stim013_stimuli_original_vehicles_planes_1.png	D	0	0	0	154.822947499924	155.02292119991
41788.25	100	132	3	0	15	24	15	0	0	0	0	stim016_stimuli_original_vehicles_planes_4.png	A	0	0	0	155.222933099954	155.422935799928
41888.25	100	133	3	0	15	25	5	3	0	1	0	stim006_stimuli_original_animals_fish_2.png	D	0	0	0	155.62294739997	155.822942400002
41988.25	100	134	3	0	15	26	0	1	0	0	0	stim001_stimuli_original_animals_birds_1.png	B	0	0	0	156.02295299992	156.222954600002
42088.25	100	135	3	0	15	27	10	6	0	0	0	stim011_stimuli_original_vehicles_boats_3.png	G	0	0	0	156.422963099903	156.622963299975
42188.25	100	136	3	0	15	28	4	4	0	0	0	stim005_stimuli_original_animals_fish_1.png	E	0	0	0	156.822973800008	157.022975699976
42288.25	100	137	3	0	15	29	13	3	0	0	0	stim014_stimuli_original_vehicles_planes_2.png	D	0	0	0	157.222988499911	157.422992399894
42388.25	100	138	3	0	15	30	3	14	0	0	0	stim004_stimuli_original_animals_birds_4.png	V	0	0	0	157.622991099954	157.822994699934
42488.25	100	139	3	0	15	31	8	8	0	0	0	stim009_stimuli_original_vehicles_boats_1.png	K	0	0	0	158.023007199983	158.223004399915
42588.25	100	140	3	0	15	32	7	9	0	0	0	stim008_stimuli_original_animals_fish_4.png	L	0	0	0	158.423017599969	158.62301859993
42688.25	100	141	3	0	15	33	6	2	0	0	0	stim007_stimuli_original_animals_fish_3.png	C	0	0	0	158.823027799954	159.023027599906
42788.25	100	142	3	0	15	34	9	13	0	0	0	stim010_stimuli_original_vehicles_boats_2.png	U	0	0	0	159.223039899953	159.423038399895
42888.25	100	143	3	0	15	35	12	5	0	0	0	stim013_stimuli_original_vehicles_planes_1.png	F	0	0	0	159.62305049994	159.823050599894
44930	100	144	4	1	14	0	0	8	0	0	0	stim001_stimuli_original_animals_birds_1.png	K	0	0	0	167.78990689991	167.989931699936
45030	100	145	4	1	14	1	9	10	0	0	0	stim010_stimuli_original_vehicles_boats_2.png	Q	0	0	0	168.189913599985	168.389913999941
45130	100	146	4	1	14	2	5	2	0	0	0	stim006_stimuli_original_animals_fish_2.png	C	0	0	0	168.589952199953	168.789923899923
45230	100	147	4	1	14	3	14	0	0	0	0	stim015_stimuli_original_vehicles_planes_3.png	A	0	0	0	168.989935799967	169.189942499972
45330	100	148	4	1	14	4	3	12	0	0	0	stim004_stimuli_original_animals_birds_4.png	T	0	0	0	169.38994569995	169.589945499902
45430	100	149	4	1	14	5	11	11	0	0	0	stim012_stimuli_original_vehicles_boats_4.png	R	0	0	0	169.789963399991	169.989954599994
45530	100	150	4	1	14	6	2	6	0	0	0	stim003_stimuli_original_animals_birds_3.png	G	0	0	0	170.18996889994	170.389968100004
45630	100	151	4	1	14	7	13	5	0	0	0	stim014_stimuli_original_vehicles_planes_2.png	F	0	0	0	170.589996099938	170.789979699999
45730	100	152	4	1	14	8	7	13	0	0	0	stim008_stimuli_original_animals_fish_4.png	U	0	0	0	170.989991699927	171.189994399901
45830	100	153	4	1	14	9	5	4	1	0	0	stim006_stimuli_original_animals_fish_2.png	E	0	0	0	171.389999499894	171.589999299962
45930	100	154	4	1	14	10	15	7	0	0	0	stim016_stimuli_original_vehicles_planes_4.png	J	0	0	0	171.790011000005	171.990011099959
46030	100	155	4	1	14	11	5	0	1	1	0	stim006_stimuli_original_animals_fish_2.png	A	0	0	0	172.190022700001	172.390021299943
46130	100	156	4	1	14	12	10	1	0	0	0	stim011_stimuli_original_vehicles_boats_3.png	B	0	0	0	172.590031599975	172.790053799981
46230	100	157	4	1	14	13	1	0	0	1	1	stim002_stimuli_original_animals_birds_2.png	A	0	0	0	172.990043699974	173.19004659995
46330	100	158	4	1	14	14	12	9	0	0	0	stim013_stimuli_original_vehicles_planes_1.png	L	d	173.382622399949	1	173.39005409996	173.590065299999
46430	100	159	4	1	14	15	8	14	0	0	0	stim009_stimuli_original_vehicles_boats_1.png	V	0	0	0	173.79007629992	173.990076699993
46530	100	160	4	1	14	16	4	15	0	0	0	stim005_stimuli_original_animals_fish_1.png	Y	0	0	0	174.1900858999	174.390072999988
46630	100	161	4	1	14	17	6	3	0	0	0	stim007_stimuli_original_animals_fish_3.png	D	0	0	0	174.590087799937	174.790084399981
46730	100	162	4	1	14	18	3	6	0	0	0	stim004_stimuli_original_animals_birds_4.png	G	0	0	0	174.990097499918	175.190096699982
46830	100	163	4	1	14	19	15	4	0	0	0	stim016_stimuli_original_vehicles_planes_4.png	E	0	0	0	175.3901357	175.59010599996
46930	100	164	4	1	14	20	14	8	0	0	0	stim015_stimuli_original_vehicles_planes_3.png	K	0	0	0	175.790119799902	175.990132399951
47030	100	165	4	1	14	21	9	12	0	0	0	stim010_stimuli_original_vehicles_boats_2.png	T	0	0	0	176.190126199974	176.390139399911
47130	100	166	4	1	14	22	0	1	1	0	0	stim001_stimuli_original_animals_birds_1.png	B	0	0	0	176.590143699897	176.790140299941
47230	100	167	4	1	14	23	1	10	0	0	0	stim002_stimuli_original_animals_birds_2.png	Q	0	0	0	176.990150999976	177.190151199931
47330	100	168	4	1	14	24	0	5	1	1	0	stim001_stimuli_original_animals_birds_1.png	F	0	0	0	177.390159899951	177.590159899904
47430	100	169	4	1	14	25	7	15	0	0	0	stim008_stimuli_original_animals_fish_4.png	Y	0	0	0	177.790171599947	177.990213299985
47530	100	170	4	1	14	26	4	5	0	1	1	stim005_stimuli_original_animals_fish_1.png	F	0	0	0	178.190181699931	178.390180899994
47630	100	171	4	1	14	27	13	7	0	0	0	stim014_stimuli_original_vehicles_planes_2.png	J	d	178.782000300009	1	178.590213599964	178.790196399903
47730	100	172	4	1	14	28	5	13	0	0	0	stim006_stimuli_original_animals_fish_2.png	U	0	0	0	178.990203899913	179.190207200008
47830	100	173	4	1	14	29	6	2	0	0	0	stim007_stimuli_original_animals_fish_3.png	C	0	0	0	179.390214599902	179.590212999959
47930	100	174	4	1	14	30	11	11	0	0	0	stim012_stimuli_original_vehicles_boats_4.png	R	0	0	0	179.790225100005	179.990221799933
48030	100	175	4	1	14	31	12	3	0	0	0	stim013_stimuli_original_vehicles_planes_1.png	D	0	0	0	180.190257199924	180.390234599938
48130	100	176	4	1	14	32	0	14	0	0	0	stim001_stimuli_original_animals_birds_1.png	V	0	0	0	180.590258799959	180.790245099925
48230	100	177	4	1	14	33	2	5	0	0	0	stim003_stimuli_original_animals_birds_3.png	F	0	0	0	180.990256599966	181.190258199931
48330	100	178	4	1	14	34	10	9	0	0	0	stim011_stimuli_original_vehicles_boats_3.png	L	0	0	0	181.390266499948	181.590267299907
48430	100	179	4	1	14	35	8	0	0	0	0	stim009_stimuli_original_vehicles_boats_1.png	A	0	0	0	181.790279099951	181.990276500001
51513.5	100	180	5	0	19	0	1	10	0	0	0	stim002_stimuli_original_animals_birds_2.png	Q	0	0	0	194.123959599994	194.323966299999
51613.5	100	181	5	0	19	1	3	1	0	0	0	stim004_stimuli_original_animals_birds_4.png	B	0	0	0	194.523978599929	194.723974199966
51713.5	100	182	5	0	19	2	0	9	0	0	0	stim001_stimuli_original_animals_birds_1.png	L	0	0	0	194.923990999931	195.123992399895
51813.5	100	183	5	0	19	3	11	13	0	0	0	stim012_stimuli_original_vehicles_boats_4.png	U	0	0	0	195.324000399909	195.523999799974
51913.5	100	184	5	0	19	4	12	6	0	0	0	stim013_stimuli_original_vehicles_planes_1.png	G	0	0	0	195.724012199906	195.924009899958
52013.5	100	185	5	0	19	5	9	2	0	0	0	stim010_stimuli_original_vehicles_boats_2.png	C	0	0	0	196.124021700001	196.324023499968
52113.5	100	186	5	0	19	6	13	4	0	0	0	stim014_stimuli_original_vehicles_planes_2.png	E	0	0	0	196.524030199973	196.724009099999
52213.5	100	187	5	0	19	7	12	9	1	1	0	stim013_stimuli_original_vehicles_planes_1.png	L	0	0	0	196.924029499991	197.124017099966
52313.5	100	188	5	0	19	8	6	7	0	0	0	stim007_stimuli_original_animals_fish_3.png	J	0	0	0	197.324028700008	197.524028299958
52413.5	100	189	5	0	19	9	12	9	1	1	1	stim013_stimuli_original_vehicles_planes_1.png	L	0	0	0	197.724043599912	197.924037899938
52513.5	100	190	5	0	19	10	8	15	0	0	0	stim009_stimuli_original_vehicles_boats_1.png	Y	f	198.315842499956	1	198.124051999999	198.324047899921
52613.5	100	191	5	0	19	11	14	8	0	0	0	stim015_stimuli_original_vehicles_planes_3.png	K	0	0	0	198.524059999967	198.724059199914
52713.5	100	192	5	0	19	12	4	0	0	0	0	stim005_stimuli_original_animals_fish_1.png	A	0	0	0	198.924072699971	199.124069399899
52813.5	100	193	5	0	19	13	5	11	0	0	0	stim006_stimuli_original_animals_fish_2.png	R	0	0	0	199.324081099941	199.524080300005
52913.5	100	194	5	0	19	14	15	3	0	0	0	stim016_stimuli_original_vehicles_planes_4.png	D	0	0	0	199.724092299934	199.924089799984
53013.5	100	195	5	0	19	15	7	12	0	0	0	stim008_stimuli_original_animals_fish_4.png	T	0	0	0	200.124101799913	200.324101099977
53113.5	100	196	5	0	19	16	2	5	0	0	0	stim003_stimuli_original_animals_birds_3.png	F	0	0	0	200.524116899935	200.724114599987
53213.5	100	197	5	0	19	17	10	14	0	0	0	stim011_stimuli_original_vehicles_boats_3.png	V	0	0	0	200.924124899902	201.124123799964
53313.5	100	198	5	0	19	18	14	10	0	0	0	stim015_stimuli_original_vehicles_planes_3.png	Q	0	0	0	201.324134800001	201.524134599953
53413.5	100	199	5	0	19	19	5	2	0	0	0	stim006_stimuli_original_animals_fish_2.png	C	0	0	0	201.724144499982	201.924144199933
53513.5	100	200	5	0	19	20	12	7	0	0	0	stim013_stimuli_original_vehicles_planes_1.png	J	0	0	0	202.124155699974	202.324156199931
53613.5	100	201	5	0	19	21	3	15	0	0	0	stim004_stimuli_original_animals_birds_4.png	Y	0	0	0	202.524165099952	202.724164499901
53713.5	100	202	5	0	19	22	11	5	0	0	0	stim012_stimuli_original_vehicles_boats_4.png	F	0	0	0	202.924178999965	203.124189299997
53813.5	100	203	5	0	19	23	0	4	0	0	0	stim001_stimuli_original_animals_birds_1.png	E	0	0	0	203.324198899907	203.524197799969
53913.5	100	204	5	0	19	24	8	14	0	0	0	stim009_stimuli_original_vehicles_boats_1.png	V	0	0	0	203.724212599918	203.924200399895
54013.5	100	205	5	0	19	25	15	8	0	0	0	stim016_stimuli_original_vehicles_planes_4.png	K	0	0	0	204.124215899967	204.324207699974
54113.5	100	206	5	0	19	26	9	12	1	1	0	stim010_stimuli_original_vehicles_boats_2.png	T	0	0	0	204.524218699895	204.72423729999
54213.5	100	207	5	0	19	27	7	6	0	0	0	stim008_stimuli_original_animals_fish_4.png	G	0	0	0	204.92425219994	205.124241399928
54313.5	100	208	5	0	19	28	9	12	1	1	1	stim010_stimuli_original_vehicles_boats_2.png	T	0	0	0	205.324254799983	205.524250699906
54413.5	100	209	5	0	19	29	4	13	0	0	0	stim005_stimuli_original_animals_fish_1.png	U	0	0	0	205.724268199992	205.924252699944
54513.5	100	210	5	0	19	30	2	9	0	0	0	stim003_stimuli_original_animals_birds_3.png	L	0	0	0	206.124265099992	206.324261499918
54613.5	100	211	5	0	19	31	6	12	0	0	0	stim007_stimuli_original_animals_fish_3.png	T	0	0	0	206.524274799973	206.724294299958
54713.5	100	212	5	0	19	32	13	11	0	0	0	stim014_stimuli_original_vehicles_planes_2.png	R	0	0	0	206.924286099966	207.124285099912
54813.5	100	213	5	0	19	33	9	0	0	0	0	stim010_stimuli_original_vehicles_boats_2.png	A	0	0	0	207.324312199955	207.524296199903
54913.5	100	214	5	0	19	34	1	3	0	0	0	stim002_stimuli_original_animals_birds_2.png	D	0	0	0	207.724306899938	207.924304999993
55013.5	100	215	5	0	19	35	10	1	0	0	0	stim011_stimuli_original_vehicles_boats_3.png	B	0	0	0	208.124316199915	208.324316699989
57126	100	216	6	1	30	0	0	12	0	0	0	stim001_stimuli_original_animals_birds_1.png	T	0	0	0	216.574545899988	216.774540699902
57226	100	217	6	1	30	1	7	11	0	0	0	stim008_stimuli_original_animals_fish_4.png	R	0	0	0	216.974550899933	217.174554399913
57326	100	218	6	1	30	2	3	15	0	0	0	stim004_stimuli_original_animals_birds_4.png	Y	0	0	0	217.374563799938	217.574563000002
57426	100	219	6	1	30	3	5	3	0	0	0	stim006_stimuli_original_animals_fish_2.png	D	0	0	0	217.774577499949	217.974575400003
57526	100	220	6	1	30	4	4	1	0	0	0	stim005_stimuli_original_animals_fish_1.png	B	0	0	0	218.174585199915	218.374583399971
57626	100	221	6	1	30	5	13	10	0	0	0	stim014_stimuli_original_vehicles_planes_2.png	Q	0	0	0	218.57459460001	218.77459679998
57726	100	222	6	1	30	6	8	9	1	0	0	stim009_stimuli_original_vehicles_boats_1.png	L	0	0	0	218.974603199982	219.174607299967
57826	100	223	6	1	30	7	1	13	0	0	0	stim002_stimuli_original_animals_birds_2.png	U	0	0	0	219.374619599897	219.574620799976
57926	100	224	6	1	30	8	8	7	1	0	0	stim009_stimuli_original_vehicles_boats_1.png	J	0	0	0	219.77462869999	219.974624599912
58026	100	225	6	1	30	9	14	14	0	0	0	stim015_stimuli_original_vehicles_planes_3.png	V	0	0	0	220.174639199977	220.37463789992
58126	100	226	6	1	30	10	10	2	0	0	0	stim011_stimuli_original_vehicles_boats_3.png	C	0	0	0	220.574652399984	220.774651099928
58226	100	227	6	1	30	11	9	0	0	0	0	stim010_stimuli_original_vehicles_boats_2.png	A	0	0	0	220.974656499922	221.174661199911
58326	100	228	6	1	30	12	8	4	0	1	0	stim009_stimuli_original_vehicles_boats_1.png	E	0	0	0	221.374670499936	221.5746718999
58426	100	229	6	1	30	13	6	8	0	0	0	stim007_stimuli_original_animals_fish_3.png	K	0	0	0	221.774686499964	221.974679599982
58526	100	230	6	1	30	14	2	4	0	1	1	stim003_stimuli_original_animals_birds_3.png	E	0	0	0	222.174693399924	222.374695000006
58626	100	231	6	1	30	15	11	6	0	0	0	stim012_stimuli_original_vehicles_boats_4.png	G	0	0	0	222.574703199905	222.774703699979
58726	100	232	6	1	30	16	15	5	0	0	0	stim016_stimuli_original_vehicles_planes_4.png	F	0	0	0	222.974714899901	223.174714099965
58826	100	233	6	1	30	17	12	4	0	0	0	stim013_stimuli_original_vehicles_planes_1.png	E	0	0	0	223.374724399997	223.574723899947
58926	100	234	6	1	30	18	4	12	0	0	0	stim005_stimuli_original_animals_fish_1.png	T	0	0	0	223.774738499895	223.97473259992
59026	100	235	6	1	30	19	5	15	0	0	0	stim006_stimuli_original_animals_fish_2.png	Y	0	0	0	224.174747299985	224.374743799912
59126	100	236	6	1	30	20	6	11	0	0	0	stim007_stimuli_original_animals_fish_3.png	R	0	0	0	224.574758799979	224.774755499908
59226	100	237	6	1	30	21	4	2	1	0	0	stim005_stimuli_original_animals_fish_1.png	C	0	0	0	224.974762899918	225.174765800009
59326	100	238	6	1	30	22	8	6	0	0	0	stim009_stimuli_original_vehicles_boats_1.png	G	0	0	0	225.374777099933	225.574777700007
59426	100	239	6	1	30	23	4	8	1	0	0	stim005_stimuli_original_animals_fish_1.png	K	0	0	0	225.774789199932	225.974787899991
59526	100	240	6	1	30	24	0	9	0	0	0	stim001_stimuli_original_animals_birds_1.png	L	0	0	0	226.174797799904	226.374801500002
59626	100	241	6	1	30	25	2	10	0	0	0	stim003_stimuli_original_animals_birds_3.png	Q	0	0	0	226.574808300007	226.77480819996
59726	100	242	6	1	30	26	14	14	0	0	0	stim015_stimuli_original_vehicles_planes_3.png	V	0	0	0	226.974818799994	227.174824899994
59826	100	243	6	1	30	27	7	8	0	1	0	stim008_stimuli_original_animals_fish_4.png	K	0	0	0	227.374830699991	227.574831499951
59926	100	244	6	1	30	28	13	1	0	0	0	stim014_stimuli_original_vehicles_planes_2.png	B	0	0	0	227.774841999984	227.974841699935
60026	100	245	6	1	30	29	9	8	0	1	1	stim010_stimuli_original_vehicles_boats_2.png	K	0	0	0	228.174851199961	228.374852899928
60126	100	246	6	1	30	30	10	13	0	0	0	stim011_stimuli_original_vehicles_boats_3.png	U	0	0	0	228.574862299953	228.774862199905
60226	100	247	6	1	30	31	1	4	0	0	0	stim002_stimuli_original_animals_birds_2.png	E	0	0	0	228.974871299928	229.174874299904
60326	100	248	6	1	30	32	3	5	0	0	0	stim004_stimuli_original_animals_birds_4.png	F	0	0	0	229.374886599951	229.574884100002
60426	100	249	6	1	30	33	15	3	0	0	0	stim016_stimuli_original_vehicles_planes_4.png	D	0	0	0	229.77489989996	229.974896600004
60526	100	250	6	1	30	34	11	7	0	0	0	stim012_stimuli_original_vehicles_boats_4.png	J	0	0	0	230.174906299915	230.374910099898
60626	100	251	6	1	30	35	12	0	0	0	0	stim013_stimuli_original_vehicles_planes_1.png	A	0	0	0	230.574918699916	230.774915999966
65197	100	252	7	0	45	0	13	6	0	0	0	stim014_stimuli_original_vehicles_planes_2.png	G	0	0	0	248.85875419993	249.058751199977
65297	100	253	7	0	45	1	9	3	0	0	0	stim010_stimuli_original_vehicles_boats_2.png	D	0	0	0	249.2587625999	249.458761099959
65397	100	254	7	0	45	2	10	8	0	0	0	stim011_stimuli_original_vehicles_boats_3.png	K	0	0	0	249.658773500007	249.858773799962
65497	100	255	7	0	45	3	11	12	0	0	0	stim012_stimuli_original_vehicles_boats_4.png	T	0	0	0	250.058787299902	250.25878439995
65597	100	256	7	0	45	4	12	5	0	0	0	stim013_stimuli_original_vehicles_planes_1.png	F	0	0	0	250.458793799975	250.658806999912
65697	100	257	7	0	45	5	4	2	0	0	0	stim005_stimuli_original_animals_fish_1.png	C	0	0	0	250.858803599956	251.058805999928
65797	100	258	7	0	45	6	2	9	0	0	0	stim003_stimuli_original_animals_birds_3.png	L	0	0	0	251.258828299935	251.458812600002
65897	100	259	7	0	45	7	15	10	0	0	0	stim016_stimuli_original_vehicles_planes_4.png	Q	0	0	0	251.658827799954	251.858825200005
65997	100	260	7	0	45	8	0	7	0	1	0	stim001_stimuli_original_animals_birds_1.png	J	0	0	0	252.058838199941	252.258838399895
66097	100	261	7	0	45	9	3	13	1	0	0	stim004_stimuli_original_animals_birds_4.png	U	0	0	0	252.458846699912	252.658863899997
66197	100	262	7	0	45	10	14	7	0	1	0	stim015_stimuli_original_vehicles_planes_3.png	J	0	0	0	252.858858199907	253.058855599957
66297	100	263	7	0	45	11	3	4	1	0	1	stim004_stimuli_original_animals_birds_4.png	E	0	0	0	253.258881799993	253.458868499962
66397	100	264	7	0	45	12	7	1	0	0	0	stim008_stimuli_original_animals_fish_4.png	B	0	0	0	253.6588796	253.858893799945
66497	100	265	7	0	45	13	5	0	0	0	0	stim006_stimuli_original_animals_fish_2.png	A	f	254.051446099998	1	254.05889059999	254.258889699937
66597	100	266	7	0	45	14	6	15	0	0	0	stim007_stimuli_original_animals_fish_3.png	Y	0	0	0	254.458901099977	254.658899399918
66697	100	267	7	0	45	15	1	7	0	0	0	stim002_stimuli_original_animals_birds_2.png	J	0	0	0	254.858912899974	255.058911199914
66797	100	268	7	0	45	16	8	11	0	0	0	stim009_stimuli_original_vehicles_boats_1.png	R	0	0	0	255.258920899942	255.45895
66897	100	269	7	0	45	17	3	14	0	0	0	stim004_stimuli_original_animals_birds_4.png	V	0	0	0	255.658932299935	255.858936099918
66997	100	270	7	0	45	18	14	3	0	0	0	stim015_stimuli_original_vehicles_planes_3.png	D	0	0	0	256.05897439993	256.25894249999
67097	100	271	7	0	45	19	11	8	0	0	0	stim012_stimuli_original_vehicles_boats_4.png	K	0	0	0	256.458955199923	256.658954899991
67197	100	272	7	0	45	20	7	1	0	0	0	stim008_stimuli_original_animals_fish_4.png	B	0	0	0	256.858963999897	257.058964899974
67297	100	273	7	0	45	21	15	6	0	0	0	stim016_stimuli_original_vehicles_planes_4.png	G	0	0	0	257.258978199912	257.458974599955
67397	100	274	7	0	45	22	0	5	0	0	0	stim001_stimuli_original_animals_birds_1.png	F	0	0	0	257.658985799993	257.858986599953
67497	100	275	7	0	45	23	1	7	0	0	0	stim002_stimuli_original_animals_birds_2.png	J	0	0	0	258.059023499954	258.258997499943
67597	100	276	7	0	45	24	4	3	0	1	0	stim005_stimuli_original_animals_fish_1.png	D	0	0	0	258.45900719997	258.659021299914
67697	100	277	7	0	45	25	7	14	1	0	0	stim008_stimuli_original_animals_fish_4.png	V	0	0	0	258.859019099968	259.059016799903
67797	100	278	7	0	45	26	13	3	0	1	0	stim014_stimuli_original_vehicles_planes_2.png	D	0	0	0	259.259032099973	259.459028499899
67897	100	279	7	0	45	27	7	0	1	0	1	stim008_stimuli_original_animals_fish_4.png	A	0	0	0	259.659039099934	259.859038900002
67997	100	280	7	0	45	28	10	15	0	0	0	stim011_stimuli_original_vehicles_boats_3.png	Y	0	0	0	260.05905079993	260.259052899899
68097	100	281	7	0	45	29	9	2	0	0	0	stim010_stimuli_original_vehicles_boats_2.png	C	0	0	0	260.459061399917	260.659073599963
68197	100	282	7	0	45	30	2	4	0	0	0	stim003_stimuli_original_animals_birds_3.png	E	0	0	0	260.859072899912	261.059071299969
68297	100	283	7	0	45	31	5	12	0	0	0	stim006_stimuli_original_animals_fish_2.png	T	0	0	0	261.259088099934	261.459080399945
68397	100	284	7	0	45	32	12	11	0	0	0	stim013_stimuli_original_vehicles_planes_1.png	R	0	0	0	261.659092499991	261.859092399944
68497	100	285	7	0	45	33	8	10	0	0	0	stim009_stimuli_original_vehicles_boats_1.png	Q	0	0	0	262.059104399988	262.259103199933
68597	100	286	7	0	45	34	3	9	0	0	0	stim004_stimuli_original_animals_birds_4.png	L	0	0	0	262.459117799997	262.659115199931
68697	100	287	7	0	45	35	6	13	0	0	0	stim007_stimuli_original_animals_fish_3.png	U	0	0	0	262.85913909995	263.059125599917
69955.5	100	288	8	1	37	0	1	5	0	0	0	stim002_stimuli_original_animals_birds_2.png	F	0	0	0	267.892613300006	268.092583299964
70055.5	100	289	8	1	37	1	13	6	0	0	0	stim014_stimuli_original_vehicles_planes_2.png	G	0	0	0	268.292593399994	268.492609599954
70155.5	100	290	8	1	37	2	11	0	0	0	0	stim012_stimuli_original_vehicles_boats_4.png	A	0	0	0	268.692603299976	268.892602099921
70255.5	100	291	8	1	37	3	3	15	0	0	0	stim004_stimuli_original_animals_birds_4.png	Y	0	0	0	269.092615299975	269.292615399929
70355.5	100	292	8	1	37	4	7	14	0	0	0	stim008_stimuli_original_animals_fish_4.png	V	0	0	0	269.492627399974	269.692623599898
70455.5	100	293	8	1	37	5	12	7	0	0	0	stim013_stimuli_original_vehicles_planes_1.png	J	0	0	0	269.892637499957	270.092637499911
70555.5	100	294	8	1	37	6	6	13	0	0	0	stim007_stimuli_original_animals_fish_3.png	U	0	0	0	270.292647099937	270.492658099975
70655.5	100	295	8	1	37	7	9	1	0	0	0	stim010_stimuli_original_vehicles_boats_2.png	B	0	0	0	270.692654999904	270.892656699987
70755.5	100	296	8	1	37	8	15	10	0	0	0	stim016_stimuli_original_vehicles_planes_4.png	Q	0	0	0	271.092667499906	271.292670199997
70855.5	100	297	8	1	37	9	3	4	1	0	0	stim004_stimuli_original_animals_birds_4.png	E	0	0	0	271.492677000002	271.692678299965
70955.5	100	298	8	1	37	10	2	3	0	0	0	stim003_stimuli_original_animals_birds_3.png	D	0	0	0	271.892689300003	272.092692899983
71055.5	100	299	8	1	37	11	3	1	1	1	0	stim004_stimuli_original_animals_birds_4.png	B	0	0	0	272.292700799997	272.49269949994
71155.5	100	300	8	1	37	12	4	9	0	0	0	stim005_stimuli_original_animals_fish_1.png	L	0	0	0	272.692707199953	272.892709999927
71255.5	100	301	8	1	37	13	8	1	0	1	1	stim009_stimuli_original_vehicles_boats_1.png	B	0	0	0	273.092732999939	273.292721199919
71355.5	100	302	8	1	37	14	10	2	0	0	0	stim011_stimuli_original_vehicles_boats_3.png	C	f	273.684523799922	1	273.492732999963	273.692736499943
71455.5	100	303	8	1	37	15	5	11	0	0	0	stim006_stimuli_original_animals_fish_2.png	R	0	0	0	273.892746399972	274.092742299894
71555.5	100	304	8	1	37	16	0	12	0	0	0	stim001_stimuli_original_animals_birds_1.png	T	0	0	0	274.292756599956	274.492752099992
71655.5	100	305	8	1	37	17	14	8	0	0	0	stim015_stimuli_original_vehicles_planes_3.png	K	0	0	0	274.692763799918	274.892764399992
71755.5	100	306	8	1	37	18	8	14	0	0	0	stim009_stimuli_original_vehicles_boats_1.png	V	0	0	0	275.092775599915	275.292801999953
71855.5	100	307	8	1	37	19	12	0	0	0	0	stim013_stimuli_original_vehicles_planes_1.png	A	0	0	0	275.492787599913	275.692783399951
71955.5	100	308	8	1	37	20	11	5	0	0	0	stim012_stimuli_original_vehicles_boats_4.png	F	0	0	0	275.892812000006	276.092796699959
72055.5	100	309	8	1	37	21	2	10	0	0	0	stim003_stimuli_original_animals_birds_3.png	Q	0	0	0	276.292805099976	276.492808699957
72155.5	100	310	8	1	37	22	1	8	1	0	0	stim002_stimuli_original_animals_birds_2.png	K	0	0	0	276.69281919999	276.89281869994
72255.5	100	311	8	1	37	23	9	4	0	0	0	stim010_stimuli_original_vehicles_boats_2.png	E	0	0	0	277.092829899979	277.292827699916
72355.5	100	312	8	1	37	24	1	3	1	1	0	stim002_stimuli_original_animals_birds_2.png	D	0	0	0	277.492838899954	277.692838999908
72455.5	100	313	8	1	37	25	3	2	0	0	0	stim004_stimuli_original_animals_birds_4.png	C	0	0	0	277.892877399921	278.092850699904
72555.5	100	314	8	1	37	26	4	3	0	1	1	stim005_stimuli_original_animals_fish_1.png	D	0	0	0	278.29286409996	278.492871799972
72655.5	100	315	8	1	37	27	10	15	0	0	0	stim011_stimuli_original_vehicles_boats_3.png	Y	f	278.884663999896	1	278.692870199913	278.892870099982
72755.5	100	316	8	1	37	28	1	9	0	0	0	stim002_stimuli_original_animals_birds_2.png	L	0	0	0	279.092882599914	279.292882999987
72855.5	100	317	8	1	37	29	13	6	0	0	0	stim014_stimuli_original_vehicles_planes_2.png	G	0	0	0	279.492890499998	279.692891799961
72955.5	100	318	8	1	37	30	7	12	0	0	0	stim008_stimuli_original_animals_fish_4.png	T	0	0	0	279.892902399995	280.092905499972
73055.5	100	319	8	1	37	31	14	7	0	0	0	stim015_stimuli_original_vehicles_planes_3.png	J	0	0	0	280.292911999975	280.492927299929
73155.5	100	320	8	1	37	32	15	3	0	0	0	stim016_stimuli_original_vehicles_planes_4.png	D	0	0	0	280.692924599978	280.892924799933
73255.5	100	321	8	1	37	33	0	11	0	0	0	stim001_stimuli_original_animals_birds_1.png	R	0	0	0	281.092946999939	281.292934599915
73355.5	100	322	8	1	37	34	6	13	0	0	0	stim007_stimuli_original_animals_fish_3.png	U	0	0	0	281.49294669996	281.692949599936
73455.5	100	323	8	1	37	35	5	1	0	0	0	stim006_stimuli_original_animals_fish_2.png	B	0	0	0	281.892954899929	282.092956699897
77355.75	100	324	9	0	37	0	1	5	0	0	0	stim002_stimuli_original_animals_birds_2.png	F	0	0	0	297.493377299979	297.693378799944
77455.75	100	325	9	0	37	1	13	6	0	0	0	stim014_stimuli_original_vehicles_planes_2.png	G	0	0	0	297.893384999945	298.093383700005
77555.75	100	326	9	0	37	2	11	0	0	0	0	stim012_stimuli_original_vehicles_boats_4.png	A	0	0	0	298.293396199937	298.493395600002
77655.75	100	327	9	0	37	3	3	15	0	0	0	stim004_stimuli_original_animals_birds_4.png	Y	0	0	0	298.693405499915	298.893404699978
77755.75	100	328	9	0	37	4	7	14	0	0	0	stim008_stimuli_original_animals_fish_4.png	V	0	0	0	299.09341709991	299.293418299989
77855.75	100	329	9	0	37	5	12	7	0	0	0	stim013_stimuli_original_vehicles_planes_1.png	J	0	0	0	299.493426800007	299.693426299957
77955.75	100	330	9	0	37	6	6	13	0	0	0	stim007_stimuli_original_animals_fish_3.png	U	0	0	0	299.893438200001	300.093437499949
78055.75	100	331	9	0	37	7	9	1	0	0	0	stim010_stimuli_original_vehicles_boats_2.png	B	0	0	0	300.293465299997	300.493449199945
78155.75	100	332	9	0	37	8	15	10	0	0	0	stim016_stimuli_original_vehicles_planes_4.png	Q	0	0	0	300.693459599977	300.893454400008
78255.75	100	333	9	0	37	9	3	4	1	0	0	stim004_stimuli_original_animals_birds_4.png	E	0	0	0	301.093468699954	301.293464799994
78355.75	100	334	9	0	37	10	2	3	0	0	0	stim003_stimuli_original_animals_birds_3.png	D	0	0	0	301.493477299926	301.693476199987
78455.75	100	335	9	0	37	11	3	1	1	1	1	stim004_stimuli_original_animals_birds_4.png	B	0	0	0	301.893489299924	302.093486999976
78555.75	100	336	9	0	37	12	4	9	0	0	0	stim005_stimuli_original_animals_fish_1.png	L	f	302.485292800004	1	302.293499499909	302.493498899974
78655.75	100	337	9	0	37	13	8	1	0	1	0	stim009_stimuli_original_vehicles_boats_1.png	B	0	0	0	302.693516099942	302.893508799956
78755.75	100	338	9	0	37	14	10	2	0	0	0	stim011_stimuli_original_vehicles_boats_3.png	C	0	0	0	303.093520199996	303.29352019995
78855.75	100	339	9	0	37	15	5	11	0	0	0	stim006_stimuli_original_animals_fish_2.png	R	0	0	0	303.493531799992	303.693533299956
78955.75	100	340	9	0	37	16	0	12	0	0	0	stim001_stimuli_original_animals_birds_1.png	T	0	0	0	303.893551599933	304.093545399955
79055.75	100	341	9	0	37	17	14	8	0	0	0	stim015_stimuli_original_vehicles_planes_3.png	K	0	0	0	304.29355609999	304.493555799942
79155.75	100	342	9	0	37	18	8	14	0	0	0	stim009_stimuli_original_vehicles_boats_1.png	V	0	0	0	304.693566099973	304.893567999941
79255.75	100	343	9	0	37	19	12	0	0	0	0	stim013_stimuli_original_vehicles_planes_1.png	A	0	0	0	305.093579799985	305.293582399958
79355.75	100	344	9	0	37	20	11	5	0	0	0	stim012_stimuli_original_vehicles_boats_4.png	F	0	0	0	305.49358879996	305.693586799898
79455.75	100	345	9	0	37	21	2	10	0	0	0	stim003_stimuli_original_animals_birds_3.png	Q	0	0	0	305.893600399955	306.093598699896
79555.75	100	346	9	0	37	22	1	8	1	0	0	stim002_stimuli_original_animals_birds_2.png	K	0	0	0	306.293609799934	306.493610200007
79655.75	100	347	9	0	37	23	9	4	0	0	0	stim010_stimuli_original_vehicles_boats_2.png	E	0	0	0	306.693619699916	306.893619899987
79755.75	100	348	9	0	37	24	1	3	1	1	1	stim002_stimuli_original_animals_birds_2.png	D	0	0	0	307.093631699914	307.293630499975
79855.75	100	349	9	0	37	25	3	2	0	0	0	stim004_stimuli_original_animals_birds_4.png	C	0	0	0	307.493643199909	307.693641499965
79955.75	100	350	9	0	37	26	4	3	0	1	0	stim005_stimuli_original_animals_fish_1.png	D	f	307.886183199938	1	307.893657299923	308.093653899967
80055.75	100	351	9	0	37	27	10	15	0	0	0	stim011_stimuli_original_vehicles_boats_3.png	Y	0	0	0	308.293662999989	308.493662199937
80155.75	100	352	9	0	37	28	1	9	0	0	0	stim002_stimuli_original_animals_birds_2.png	L	0	0	0	308.69367269997	308.89367349993
80255.75	100	353	9	0	37	29	13	6	0	0	0	stim014_stimuli_original_vehicles_planes_2.png	G	0	0	0	309.093686799984	309.293682999909
80355.75	100	354	9	0	37	30	7	12	0	0	0	stim008_stimuli_original_animals_fish_4.png	T	0	0	0	309.493694399949	309.693695299909
80455.75	100	355	9	0	37	31	14	7	0	0	0	stim015_stimuli_original_vehicles_planes_3.png	J	0	0	0	309.89370409993	310.093705699896
80555.75	100	356	9	0	37	32	15	3	0	0	0	stim016_stimuli_original_vehicles_planes_4.png	D	0	0	0	310.293717999943	310.493717600009
80655.75	100	357	9	0	37	33	0	11	0	0	0	stim001_stimuli_original_animals_birds_1.png	R	0	0	0	310.69372729992	310.893728199997
80755.75	100	358	9	0	37	34	6	13	0	0	0	stim007_stimuli_original_animals_fish_3.png	U	0	0	0	311.093738399912	311.29373689997
80855.75	100	359	9	0	37	35	5	1	0	0	0	stim006_stimuli_original_animals_fish_2.png	B	0	0	0	311.493750499911	311.693746599951
85264.25	100	360	10	1	24	0	14	13	0	0	0	stim015_stimuli_original_vehicles_planes_3.png	U	0	0	0	329.127555199899	329.327553799958
85364.25	100	361	10	1	24	1	4	6	0	0	0	stim005_stimuli_original_animals_fish_1.png	G	0	0	0	329.527564799995	329.727562599932
85464.25	100	362	10	1	24	2	2	10	0	0	0	stim003_stimuli_original_animals_birds_3.png	Q	0	0	0	329.927573599969	330.127573899925
85564.25	100	363	10	1	24	3	15	9	0	0	0	stim016_stimuli_original_vehicles_planes_4.png	L	0	0	0	330.32758469996	330.527585199918
85664.25	100	364	10	1	24	4	12	0	1	0	0	stim013_stimuli_original_vehicles_planes_1.png	A	0	0	0	330.727596499957	330.927596099908
85764.25	100	365	10	1	24	5	0	5	0	0	0	stim001_stimuli_original_animals_birds_1.png	F	0	0	0	331.127607299946	331.327605500002
85864.25	100	366	10	1	24	6	12	15	1	0	0	stim013_stimuli_original_vehicles_planes_1.png	Y	0	0	0	331.52761739993	331.7276174
85964.25	100	367	10	1	24	7	8	12	0	1	0	stim009_stimuli_original_vehicles_boats_1.png	T	0	0	0	331.927628399921	332.127628699993
86064.25	100	368	10	1	24	8	5	11	0	0	0	stim006_stimuli_original_animals_fish_2.png	R	0	0	0	332.32763919991	332.527638499974
86164.25	100	369	10	1	24	9	7	12	0	1	1	stim008_stimuli_original_animals_fish_4.png	T	0	0	0	332.727650499903	332.92764879996
86264.25	100	370	10	1	24	10	11	14	0	0	0	stim012_stimuli_original_vehicles_boats_4.png	V	0	0	0	333.127660900005	333.327659399947
86364.25	100	371	10	1	24	11	1	2	0	0	0	stim002_stimuli_original_animals_birds_2.png	C	f	333.735627899994	1	333.527669999981	333.727670199936
86464.25	100	372	10	1	24	12	12	3	0	0	0	stim013_stimuli_original_vehicles_planes_1.png	D	0	0	0	333.927682899986	334.127684499952
86564.25	100	373	10	1	24	13	6	12	0	0	0	stim007_stimuli_original_animals_fish_3.png	T	0	0	0	334.327693199972	334.527693199925
86664.25	100	374	10	1	24	14	9	4	0	0	0	stim010_stimuli_original_vehicles_boats_2.png	E	0	0	0	334.727701799944	334.927701399894
86764.25	100	375	10	1	24	15	10	1	0	0	0	stim011_stimuli_original_vehicles_boats_3.png	B	0	0	0	335.127713299938	335.327713000006
86864.25	100	376	10	1	24	16	3	7	0	0	0	stim004_stimuli_original_animals_birds_4.png	J	0	0	0	335.527725599939	335.727723199991
86964.25	100	377	10	1	24	17	13	8	0	0	0	stim014_stimuli_original_vehicles_planes_2.png	K	0	0	0	335.927747599897	336.12773409998
87064.25	100	378	10	1	24	18	8	13	0	0	0	stim009_stimuli_original_vehicles_boats_1.png	U	0	0	0	336.327745899907	336.527745699976
87164.25	100	379	10	1	24	19	7	3	0	0	0	stim008_stimuli_original_animals_fish_4.png	D	0	0	0	336.727756200009	336.927757399972
87264.25	100	380	10	1	24	20	1	10	0	0	0	stim002_stimuli_original_animals_birds_2.png	Q	0	0	0	337.127767400001	337.327769699972
87364.25	100	381	10	1	24	21	4	9	0	0	0	stim005_stimuli_original_animals_fish_1.png	L	0	0	0	337.527777099982	337.72777899995
87464.25	100	382	10	1	24	22	12	6	0	0	0	stim013_stimuli_original_vehicles_planes_1.png	G	0	0	0	337.927790499991	338.127788699931
87564.25	100	383	10	1	24	23	3	12	0	0	0	stim004_stimuli_original_animals_birds_4.png	T	0	0	0	338.327797699952	338.527798399911
87664.25	100	384	10	1	24	24	2	1	0	0	0	stim003_stimuli_original_animals_birds_3.png	B	0	0	0	338.727810499957	338.927809899906
87764.25	100	385	10	1	24	25	14	11	0	0	0	stim015_stimuli_original_vehicles_planes_3.png	R	f	339.120354799903	0	339.127820999944	339.327820100007
87864.25	100	386	10	1	24	26	12	7	1	0	0	stim013_stimuli_original_vehicles_planes_1.png	J	0	0	0	339.52783279994	339.727831600001
87964.25	100	387	10	1	24	27	11	5	0	0	0	stim012_stimuli_original_vehicles_boats_4.png	F	0	0	0	339.927842199919	340.127842499991
88064.25	100	388	10	1	24	28	12	8	1	0	0	stim013_stimuli_original_vehicles_planes_1.png	K	0	0	0	340.327852999908	340.527852499974
88164.25	100	389	10	1	24	29	15	12	0	1	0	stim016_stimuli_original_vehicles_planes_4.png	T	0	0	0	340.727863100008	340.927862599958
88264.25	100	390	10	1	24	30	5	0	0	0	0	stim006_stimuli_original_animals_fish_2.png	A	0	0	0	341.127874600003	341.327873899951
88364.25	100	391	10	1	24	31	0	12	0	1	1	stim001_stimuli_original_animals_birds_1.png	T	0	0	0	341.527885799995	341.727887499961
88464.25	100	392	10	1	24	32	9	15	0	0	0	stim010_stimuli_original_vehicles_boats_2.png	Y	0	0	0	341.927897199988	342.12789439992
88564.25	100	393	10	1	24	33	10	2	0	0	0	stim011_stimuli_original_vehicles_boats_3.png	C	0	0	0	342.327907899977	342.527906499919
88664.25	100	394	10	1	24	34	6	4	0	0	0	stim007_stimuli_original_animals_fish_3.png	E	0	0	0	342.727916399948	342.927916699904
88764.25	100	395	10	1	24	35	13	14	0	0	0	stim014_stimuli_original_vehicles_planes_2.png	V	0	0	0	343.127926399931	343.327925999998
93402	100	396	11	0	22	0	8	3	0	0	0	stim009_stimuli_original_vehicles_boats_1.png	D	0	0	0	361.678448199993	361.878445799928
93502	100	397	11	0	22	1	7	2	0	0	0	stim008_stimuli_original_animals_fish_4.png	C	0	0	0	362.078457699972	362.27845699992
93602	100	398	11	0	22	2	5	15	0	0	0	stim006_stimuli_original_animals_fish_2.png	Y	0	0	0	362.478474700009	362.678466899903
93702	100	399	11	0	22	3	6	12	0	0	0	stim007_stimuli_original_animals_fish_3.png	T	0	0	0	362.878478499944	363.078482599929
93802	100	400	11	0	22	4	4	8	0	0	0	stim005_stimuli_original_animals_fish_1.png	K	0	0	0	363.27849149995	363.478464999935
93902	100	401	11	0	22	5	8	6	1	0	0	stim009_stimuli_original_vehicles_boats_1.png	G	0	0	0	363.678506799974	363.878501700005
94002	100	402	11	0	22	6	13	7	0	1	0	stim014_stimuli_original_vehicles_planes_2.png	J	0	0	0	364.078520799987	364.278515099897
94102	100	403	11	0	22	7	8	9	1	0	1	stim009_stimuli_original_vehicles_boats_1.png	L	0	0	0	364.478534499998	364.678523299983
94202	100	404	11	0	22	8	2	7	0	1	0	stim003_stimuli_original_animals_birds_3.png	J	0	0	0	364.878536199918	365.078536199988
94302	100	405	11	0	22	9	1	11	0	0	0	stim002_stimuli_original_animals_birds_2.png	R	f	365.271032099961	1	365.278545199893	365.478546199971
94402	100	406	11	0	22	10	15	0	0	0	0	stim016_stimuli_original_vehicles_planes_4.png	A	0	0	0	365.678554699989	365.878557599965
94502	100	407	11	0	22	11	14	7	0	0	0	stim015_stimuli_original_vehicles_planes_3.png	J	0	0	0	366.07856569998	366.278571299976
94602	100	408	11	0	22	12	12	13	0	0	0	stim013_stimuli_original_vehicles_planes_1.png	U	0	0	0	366.478576299967	366.678563099937
94702	100	409	11	0	22	13	10	4	0	0	0	stim011_stimuli_original_vehicles_boats_3.png	E	f	366.878753399942	0	366.878590699984	367.07859499997
94802	100	410	11	0	22	14	9	10	0	0	0	stim010_stimuli_original_vehicles_boats_2.png	Q	0	0	0	367.278589099995	367.478575799963
94902	100	411	11	0	22	15	11	1	0	0	0	stim012_stimuli_original_vehicles_boats_4.png	B	0	0	0	367.678593299934	367.878582599922
95002	100	412	11	0	22	16	3	14	0	0	0	stim004_stimuli_original_animals_birds_4.png	V	0	0	0	368.078594199964	368.278595199925
95102	100	413	11	0	22	17	0	5	0	0	0	stim001_stimuli_original_animals_birds_1.png	F	0	0	0	368.478607999976	368.67860549991
95202	100	414	11	0	22	18	5	0	0	0	0	stim006_stimuli_original_animals_fish_2.png	A	0	0	0	368.878618699964	369.078617599909
95302	100	415	11	0	22	19	14	3	0	0	0	stim015_stimuli_original_vehicles_planes_3.png	D	0	0	0	369.2786509	369.478627000004
95402	100	416	11	0	22	20	1	11	0	0	0	stim002_stimuli_original_animals_birds_2.png	R	0	0	0	369.678637599922	369.878644899931
95502	100	417	11	0	22	21	10	9	0	0	0	stim011_stimuli_original_vehicles_boats_3.png	L	0	0	0	370.07864959992	370.278648599982
95602	100	418	11	0	22	22	4	10	0	0	0	stim005_stimuli_original_animals_fish_1.png	Q	0	0	0	370.478660999914	370.678659299971
95702	100	419	11	0	22	23	13	12	0	0	0	stim014_stimuli_original_vehicles_planes_2.png	T	0	0	0	370.878669900005	371.078668399947
95802	100	420	11	0	22	24	7	14	0	0	0	stim008_stimuli_original_animals_fish_4.png	V	0	0	0	371.278681299998	371.478685499984
95902	100	421	11	0	22	25	0	15	0	0	0	stim001_stimuli_original_animals_birds_1.png	Y	0	0	0	371.678706899984	371.878703899914
96002	100	422	11	0	22	26	11	1	0	0	0	stim012_stimuli_original_vehicles_boats_4.png	B	0	0	0	372.078713599942	372.278699399903
96102	100	423	11	0	22	27	7	2	1	0	0	stim008_stimuli_original_animals_fish_4.png	C	0	0	0	372.478722399916	372.678711999906
96202	100	424	11	0	22	28	9	8	0	1	0	stim010_stimuli_original_vehicles_boats_2.png	K	f	372.871263399953	0	372.87872379995	373.078721700003
96302	100	425	11	0	22	29	7	13	1	0	1	stim008_stimuli_original_animals_fish_4.png	U	0	0	0	373.278733899933	373.478732999996
96402	100	426	11	0	22	30	6	8	0	1	0	stim007_stimuli_original_animals_fish_3.png	K	0	0	0	373.678744099918	373.878743299982
96502	100	427	11	0	22	31	8	4	0	0	0	stim009_stimuli_original_vehicles_boats_1.png	E	0	0	0	374.07877449994	374.278754399973
96602	100	428	11	0	22	32	12	6	0	0	0	stim013_stimuli_original_vehicles_planes_1.png	G	0	0	0	374.478765000007	374.678766599973
96702	100	429	11	0	22	33	15	5	0	0	0	stim016_stimuli_original_vehicles_planes_4.png	F	0	0	0	374.878776800004	375.078780099982
96802	100	430	11	0	22	34	2	7	0	0	0	stim003_stimuli_original_animals_birds_3.png	J	0	0	0	375.278787099989	375.478785599931
96902	100	431	11	0	22	35	3	8	0	0	0	stim004_stimuli_original_animals_birds_4.png	K	0	0	0	375.678797099972	375.878799199942
99764.5	100	432	12	1	12	0	11	6	0	0	0	stim012_stimuli_original_vehicles_boats_4.png	G	0	0	0	387.129112199997	387.329103399999
99864.5	100	433	12	1	12	1	8	12	0	0	0	stim009_stimuli_original_vehicles_boats_1.png	T	0	0	0	387.529118499951	387.729114499991
99964.5	100	434	12	1	12	2	0	10	0	0	0	stim001_stimuli_original_animals_birds_1.png	Q	0	0	0	387.929124999908	388.129125899985
100064.5	100	435	12	1	12	3	7	0	0	0	0	stim008_stimuli_original_animals_fish_4.png	A	0	0	0	388.329135999898	388.529153399984
100164.5	100	436	12	1	12	4	9	5	0	0	0	stim010_stimuli_original_vehicles_boats_2.png	F	0	0	0	388.729146900005	388.929147299961
100264.5	100	437	12	1	12	5	12	9	0	0	0	stim013_stimuli_original_vehicles_planes_1.png	L	0	0	0	389.129162399913	389.329161499976
100364.5	100	438	12	1	12	6	4	1	0	0	0	stim005_stimuli_original_animals_fish_1.png	B	0	0	0	389.529167999979	389.729168599937
100464.5	100	439	12	1	12	7	13	2	0	0	0	stim014_stimuli_original_vehicles_planes_2.png	C	0	0	0	389.929181399988	390.129180899938
100564.5	100	440	12	1	12	8	1	15	1	1	0	stim002_stimuli_original_animals_birds_2.png	Y	0	0	0	390.329189199954	390.529187799897
100664.5	100	441	12	1	12	9	3	4	0	0	0	stim004_stimuli_original_animals_birds_4.png	E	0	0	0	390.72920089995	390.929199899896
100764.5	100	442	12	1	12	10	1	15	1	1	1	stim002_stimuli_original_animals_birds_2.png	Y	0	0	0	391.129210699932	391.329210800002
100864.5	100	443	12	1	12	11	2	7	0	0	0	stim003_stimuli_original_animals_birds_3.png	J	0	0	0	391.529220799915	391.729221799993
100964.5	100	444	12	1	12	12	14	3	0	0	0	stim015_stimuli_original_vehicles_planes_3.png	D	0	0	0	391.92923489993	392.129230499966
101064.5	100	445	12	1	12	13	10	15	0	0	0	stim011_stimuli_original_vehicles_boats_3.png	Y	0	0	0	392.329245399917	392.529244099976
101164.5	100	446	12	1	12	14	15	13	0	0	0	stim016_stimuli_original_vehicles_planes_4.png	U	0	0	0	392.729254300008	392.929253599956
101264.5	100	447	12	1	12	15	1	11	0	0	0	stim002_stimuli_original_animals_birds_2.png	R	0	0	0	393.12926680001	393.329265699955
101364.5	100	448	12	1	12	16	6	8	0	0	0	stim007_stimuli_original_animals_fish_3.png	K	0	0	0	393.529280299903	393.729274999932
101464.5	100	449	12	1	12	17	5	14	0	0	0	stim006_stimuli_original_animals_fish_2.png	V	0	0	0	393.929284299957	394.12928559992
101564.5	100	450	12	1	12	18	14	5	0	0	0	stim015_stimuli_original_vehicles_planes_3.png	F	0	0	0	394.329298199969	394.52929649991
101664.5	100	451	12	1	12	19	8	6	0	0	0	stim009_stimuli_original_vehicles_boats_1.png	G	0	0	0	394.729308199952	394.929309099913
101764.5	100	452	12	1	12	20	11	1	0	0	0	stim012_stimuli_original_vehicles_boats_4.png	B	0	0	0	395.129323799978	395.329318899894
101864.5	100	453	12	1	12	21	13	15	0	0	0	stim014_stimuli_original_vehicles_planes_2.png	Y	0	0	0	395.529329399928	395.729328199988
101964.5	100	454	12	1	12	22	15	10	0	0	0	stim016_stimuli_original_vehicles_planes_4.png	Q	0	0	0	395.929338299902	396.129338199971
102064.5	100	455	12	1	12	23	3	14	0	0	0	stim004_stimuli_original_animals_birds_4.png	V	0	0	0	396.329350699903	396.529350699973
102164.5	100	456	12	1	12	24	7	2	0	0	0	stim008_stimuli_original_animals_fish_4.png	C	0	0	0	396.729361699894	396.929360599956
102264.5	100	457	12	1	12	25	15	1	1	1	0	stim016_stimuli_original_vehicles_planes_4.png	B	0	0	0	397.129371099989	397.329371999949
102364.5	100	458	12	1	12	26	4	3	0	0	0	stim005_stimuli_original_animals_fish_1.png	D	0	0	0	397.529381799977	397.729380799923
102464.5	100	459	12	1	12	27	15	1	1	1	1	stim016_stimuli_original_vehicles_planes_4.png	B	0	0	0	397.929410499986	398.12939649995
102564.5	100	460	12	1	12	28	2	13	0	0	0	stim003_stimuli_original_animals_birds_3.png	U	f	398.521191599895	1	398.329404199962	398.529403199907
102664.5	100	461	12	1	12	29	1	4	0	0	0	stim002_stimuli_original_animals_birds_2.png	E	0	0	0	398.729414799949	398.929413599893
102764.5	100	462	12	1	12	30	9	12	0	0	0	stim010_stimuli_original_vehicles_boats_2.png	T	0	0	0	399.12942839996	399.32943199994
102864.5	100	463	12	1	12	31	5	9	0	0	0	stim006_stimuli_original_animals_fish_2.png	L	0	0	0	399.529434799915	399.72943419998
102964.5	100	464	12	1	12	32	0	7	0	0	0	stim001_stimuli_original_animals_birds_1.png	J	0	0	0	399.929445199901	400.129445799976
103064.5	100	465	12	1	12	33	10	0	0	0	0	stim011_stimuli_original_vehicles_boats_3.png	A	0	0	0	400.329457499902	400.529457699973
103164.5	100	466	12	1	12	34	12	8	0	0	0	stim013_stimuli_original_vehicles_planes_1.png	K	0	0	0	400.729468799895	400.929466799949
103264.5	100	467	12	1	12	35	6	11	0	0	0	stim007_stimuli_original_animals_fish_3.png	R	0	0	0	401.129477299983	401.329520299914
106085.5	100	468	13	0	17	0	0	6	0	0	0	stim001_stimuli_original_animals_birds_1.png	G	0	0	0	412.413158299983	412.613142699935
106185.5	100	469	13	0	17	1	11	9	0	0	0	stim012_stimuli_original_vehicles_boats_4.png	L	0	0	0	412.813153999974	413.013151499908
106285.5	100	470	13	0	17	2	13	4	0	0	0	stim014_stimuli_original_vehicles_planes_2.png	E	0	0	0	413.213160999934	413.413160700002
106385.5	100	471	13	0	17	3	6	15	0	0	0	stim007_stimuli_original_animals_fish_3.png	Y	0	0	0	413.613172199926	413.813171799993
106485.5	100	472	13	0	17	4	3	14	0	0	0	stim004_stimuli_original_animals_birds_4.png	V	0	0	0	414.013186999946	414.213184499997
106585.5	100	473	13	0	17	5	9	3	0	0	0	stim010_stimuli_original_vehicles_boats_2.png	D	0	0	0	414.413199199946	414.613184799906
106685.5	100	474	13	0	17	6	4	1	0	0	0	stim005_stimuli_original_animals_fish_1.png	B	0	0	0	414.813202899997	415.013205599971
106785.5	100	475	13	0	17	7	2	2	0	0	0	stim003_stimuli_original_animals_birds_3.png	C	0	0	0	415.213206099928	415.413213199936
106885.5	100	476	13	0	17	8	1	7	1	0	0	stim002_stimuli_original_animals_birds_2.png	J	0	0	0	415.613210899988	415.813225299935
106985.5	100	477	13	0	17	9	10	15	0	1	0	stim011_stimuli_original_vehicles_boats_3.png	Y	0	0	0	416.013237599982	416.213235399919
107085.5	100	478	13	0	17	10	1	5	1	0	1	stim002_stimuli_original_animals_birds_2.png	F	0	0	0	416.413233299972	416.613246299908
107185.5	100	479	13	0	17	11	15	15	0	1	0	stim016_stimuli_original_vehicles_planes_4.png	Y	0	0	0	416.813244499965	417.013260599924
107285.5	100	480	13	0	17	12	14	12	0	0	0	stim015_stimuli_original_vehicles_planes_3.png	T	f	417.205781699973	1	417.213289999985	417.413269099896
107385.5	100	481	13	0	17	13	8	0	0	0	0	stim009_stimuli_original_vehicles_boats_1.png	A	0	0	0	417.613277999917	417.813277799985
107485.5	100	482	13	0	17	14	5	11	0	0	0	stim006_stimuli_original_animals_fish_2.png	R	0	0	0	418.013290399918	418.213288499974
107585.5	100	483	13	0	17	15	12	10	0	0	0	stim013_stimuli_original_vehicles_planes_1.png	Q	0	0	0	418.413298700005	418.613303999999
107685.5	100	484	13	0	17	16	1	13	0	0	0	stim002_stimuli_original_animals_birds_2.png	U	0	0	0	418.813310600002	419.01330589992
107785.5	100	485	13	0	17	17	7	8	0	0	0	stim008_stimuli_original_animals_fish_4.png	K	0	0	0	419.213323600008	419.413313500001
107885.5	100	486	13	0	17	18	8	7	0	0	0	stim009_stimuli_original_vehicles_boats_1.png	J	0	0	0	419.61333349999	419.813360199914
107985.5	100	487	13	0	17	19	13	1	0	0	0	stim014_stimuli_original_vehicles_planes_2.png	B	0	0	0	420.013343299972	420.213343799929
108085.5	100	488	13	0	17	20	10	12	0	0	0	stim011_stimuli_original_vehicles_boats_3.png	T	0	0	0	420.413355099969	420.613353299908
108185.5	100	489	13	0	17	21	11	5	0	0	0	stim012_stimuli_original_vehicles_boats_4.png	F	0	0	0	420.813371800003	421.013364799903
108285.5	100	490	13	0	17	22	0	8	0	0	0	stim001_stimuli_original_animals_birds_1.png	K	0	0	0	421.213378699962	421.413373599993
108385.5	100	491	13	0	17	23	12	14	0	0	0	stim013_stimuli_original_vehicles_planes_1.png	V	0	0	0	421.613386099925	421.813386399997
108485.5	100	492	13	0	17	24	15	15	1	0	0	stim016_stimuli_original_vehicles_planes_4.png	Y	0	0	0	422.013398099924	422.213395999977
108585.5	100	493	13	0	17	25	5	1	0	1	0	stim006_stimuli_original_animals_fish_2.png	B	0	0	0	422.413412199938	422.613392499974
108685.5	100	494	13	0	17	26	15	10	1	0	1	stim016_stimuli_original_vehicles_planes_4.png	Q	0	0	0	422.813422799925	423.013418599963
108785.5	100	495	13	0	17	27	7	1	0	1	0	stim008_stimuli_original_animals_fish_4.png	B	0	0	0	423.213430000003	423.41341379995
108885.5	100	496	13	0	17	28	2	2	0	0	0	stim003_stimuli_original_animals_birds_3.png	C	0	0	0	423.61343789997	423.813439599937
108985.5	100	497	13	0	17	29	1	4	0	0	0	stim002_stimuli_original_animals_birds_2.png	E	0	0	0	424.013450699975	424.213451699936
109085.5	100	498	13	0	17	30	3	9	0	0	0	stim004_stimuli_original_animals_birds_4.png	L	0	0	0	424.413460699958	424.613461299916
109185.5	100	499	13	0	17	31	14	3	0	0	0	stim015_stimuli_original_vehicles_planes_3.png	D	0	0	0	424.813469699933	425.013474199921
109285.5	100	500	13	0	17	32	15	6	0	0	0	stim016_stimuli_original_vehicles_planes_4.png	G	0	0	0	425.213481099927	425.413468799903
109385.5	100	501	13	0	17	33	4	13	0	0	0	stim005_stimuli_original_animals_fish_1.png	U	0	0	0	425.613499899977	425.8134937
109485.5	100	502	13	0	17	34	9	11	0	0	0	stim010_stimuli_original_vehicles_boats_2.png	R	0	0	0	426.01350459992	426.213504199986
109585.5	100	503	13	0	17	35	6	0	0	0	0	stim007_stimuli_original_animals_fish_3.png	A	0	0	0	426.413513499894	426.613512499956
116631.5	100	504	14	1	10	0	1	4	0	0	0	stim002_stimuli_original_animals_birds_2.png	E	0	0	0	454.597605899908	454.797601299942
116731.5	100	505	14	1	10	1	6	2	0	0	0	stim007_stimuli_original_animals_fish_3.png	C	0	0	0	454.997613899992	455.197611799929
116831.5	100	506	14	1	10	2	3	9	0	0	0	stim004_stimuli_original_animals_birds_4.png	L	0	0	0	455.397623499972	455.597598899971
116931.5	100	507	14	1	10	3	10	6	0	0	0	stim011_stimuli_original_vehicles_boats_3.png	G	0	0	0	455.797633799957	455.997634099913
117031.5	100	508	14	1	10	4	6	12	1	0	0	stim007_stimuli_original_animals_fish_3.png	T	0	0	0	456.197647999972	456.397642600001
117131.5	100	509	14	1	10	5	7	5	0	0	0	stim008_stimuli_original_animals_fish_4.png	F	0	0	0	456.597639199928	456.797654800001
117231.5	100	510	14	1	10	6	6	10	1	0	0	stim007_stimuli_original_animals_fish_3.png	Q	0	0	0	456.997665999923	457.197663999978
117331.5	100	511	14	1	10	7	13	0	0	0	0	stim014_stimuli_original_vehicles_planes_2.png	A	0	0	0	457.397660599905	457.597665299894
117431.75	100	512	14	1	10	8	11	15	0	0	0	stim012_stimuli_original_vehicles_boats_4.png	Y	0	0	0	457.797694599954	457.997677999898
117531.75	100	513	14	1	10	9	4	14	0	0	0	stim005_stimuli_original_animals_fish_1.png	V	0	0	0	458.197704599937	458.39769709995
117631.75	100	514	14	1	10	10	8	7	0	0	0	stim009_stimuli_original_vehicles_boats_1.png	J	0	0	0	458.597706399974	458.797692999942
117731.75	100	515	14	1	10	11	15	11	0	0	0	stim016_stimuli_original_vehicles_planes_4.png	R	0	0	0	458.997719099978	459.197723699966
117831.75	100	516	14	1	10	12	5	4	0	1	0	stim006_stimuli_original_animals_fish_2.png	E	0	0	0	459.397730099969	459.597729199915
117931.75	100	517	14	1	10	13	12	13	0	0	0	stim013_stimuli_original_vehicles_planes_1.png	U	0	0	0	459.797744799987	459.997739199898
118031.75	100	518	14	1	10	14	0	4	0	1	1	stim001_stimuli_original_animals_birds_1.png	E	0	0	0	460.197750599938	460.397733899998
118131.75	100	519	14	1	10	15	14	8	0	0	0	stim015_stimuli_original_vehicles_planes_3.png	K	0	0	0	460.597761099925	460.797776099993
118231.75	100	520	14	1	10	16	2	1	0	0	0	stim003_stimuli_original_animals_birds_3.png	B	0	0	0	460.997776299948	461.197771799983
118331.75	100	521	14	1	10	17	9	3	0	0	0	stim010_stimuli_original_vehicles_boats_2.png	D	0	0	0	461.397783799912	461.59778359998
118431.75	100	522	14	1	10	18	3	9	0	0	0	stim004_stimuli_original_animals_birds_4.png	L	0	0	0	461.797794699902	461.997796899988
118531.75	100	523	14	1	10	19	1	2	0	0	0	stim002_stimuli_original_animals_birds_2.png	C	0	0	0	462.197807599907	462.397789399954
118631.75	100	524	14	1	10	20	8	14	0	0	0	stim009_stimuli_original_vehicles_boats_1.png	V	0	0	0	462.597817400005	462.797813799931
118731.75	100	525	14	1	10	21	4	0	1	0	0	stim005_stimuli_original_animals_fish_1.png	A	0	0	0	462.997799100005	463.197826299933
118831.75	100	526	14	1	10	22	13	12	0	0	0	stim014_stimuli_original_vehicles_planes_2.png	T	0	0	0	463.39783729997	463.597831699997
118931.75	100	527	14	1	10	23	4	5	1	0	0	stim005_stimuli_original_animals_fish_1.png	F	0	0	0	463.797847799957	463.997849399922
119031.75	100	528	14	1	10	24	11	15	0	0	0	stim012_stimuli_original_vehicles_boats_4.png	Y	0	0	0	464.19786039996	464.397858599899
119131.75	100	529	14	1	10	25	7	8	0	0	0	stim008_stimuli_original_animals_fish_4.png	K	f	464.798029999947	0	464.597869099933	464.797854899894
119231.75	100	530	14	1	10	26	14	4	0	0	0	stim015_stimuli_original_vehicles_planes_3.png	E	0	0	0	464.997880299925	465.197880099993
119331.75	100	531	14	1	10	27	15	11	0	0	0	stim016_stimuli_original_vehicles_planes_4.png	R	0	0	0	465.397889999906	465.59789929993
119431.75	100	532	14	1	10	28	0	13	0	0	0	stim001_stimuli_original_animals_birds_1.png	U	0	0	0	465.797901599901	465.99790019996
119531.75	100	533	14	1	10	29	10	6	0	1	0	stim011_stimuli_original_vehicles_boats_3.png	G	0	0	0	466.197910499992	466.397909599938
119631.75	100	534	14	1	10	30	5	7	0	0	0	stim006_stimuli_original_animals_fish_2.png	J	0	0	0	466.597922099987	466.797922499944
119731.75	100	535	14	1	10	31	12	6	0	1	1	stim013_stimuli_original_vehicles_planes_1.png	G	0	0	0	466.997933799983	467.197931999923
119831.75	100	536	14	1	10	32	6	10	0	0	0	stim007_stimuli_original_animals_fish_3.png	Q	0	0	0	467.397945099976	467.597942699911
119931.75	100	537	14	1	10	33	9	3	0	0	0	stim010_stimuli_original_vehicles_boats_2.png	D	0	0	0	467.797953099944	467.997953599901
120031.75	100	538	14	1	10	34	2	6	0	0	0	stim003_stimuli_original_animals_birds_3.png	G	0	0	0	468.197974699899	468.397963900003
120131.75	100	539	14	1	10	35	4	1	0	0	0	stim005_stimuli_original_animals_fish_1.png	B	0	0	0	468.597975899931	468.797964499914
123061	100	540	15	0	43	0	10	0	0	0	0	stim011_stimuli_original_vehicles_boats_3.png	A	0	0	0	480.314945299993	480.514929999947
123161	100	541	15	0	43	1	8	8	0	0	0	stim009_stimuli_original_vehicles_boats_1.png	K	0	0	0	480.714939699974	480.914940899936
123261	100	542	15	0	43	2	0	6	0	0	0	stim001_stimuli_original_animals_birds_1.png	G	0	0	0	481.114954599994	481.314951699926
123361	100	543	15	0	43	3	3	9	0	0	0	stim004_stimuli_original_animals_birds_4.png	L	0	0	0	481.514979099971	481.714960899903
123461	100	544	15	0	43	4	12	12	0	0	0	stim013_stimuli_original_vehicles_planes_1.png	T	0	0	0	481.914970799931	482.114984799991
123561	100	545	15	0	43	5	15	10	0	0	0	stim016_stimuli_original_vehicles_planes_4.png	Q	0	0	0	482.314983399934	482.514983200002
123661	100	546	15	0	43	6	14	11	0	0	0	stim015_stimuli_original_vehicles_planes_3.png	R	0	0	0	482.714995199931	482.914992699982
123761	100	547	15	0	43	7	2	7	0	0	0	stim003_stimuli_original_animals_birds_3.png	J	0	0	0	483.115003599902	483.315004499978
123861	100	548	15	0	43	8	13	2	0	1	0	stim014_stimuli_original_vehicles_planes_2.png	C	0	0	0	483.515016099904	483.715057399939
123961	100	549	15	0	43	9	1	5	0	0	0	stim002_stimuli_original_animals_birds_2.png	F	0	0	0	483.915024499991	484.115049399901
124061	100	550	15	0	43	10	12	2	1	1	0	stim013_stimuli_original_vehicles_planes_1.png	C	0	0	0	484.315032099956	484.515047399909
124161	100	551	15	0	43	11	9	15	0	0	0	stim010_stimuli_original_vehicles_boats_2.png	Y	0	0	0	484.715046999976	484.91504439991
124261	100	552	15	0	43	12	12	4	1	0	1	stim013_stimuli_original_vehicles_planes_1.png	E	0	0	0	485.115055199945	485.315052899998
124361	100	553	15	0	43	13	5	2	0	0	0	stim006_stimuli_original_animals_fish_2.png	C	0	0	0	485.515064299922	485.715067099896
124461	100	554	15	0	43	14	7	14	0	0	0	stim008_stimuli_original_animals_fish_4.png	V	0	0	0	485.91507499991	486.11507369997
124561	100	555	15	0	43	15	11	13	0	0	0	stim012_stimuli_original_vehicles_boats_4.png	U	f	486.307639999897	1	486.315089099924	486.515086299973
124661	100	556	15	0	43	16	4	1	0	0	0	stim005_stimuli_original_animals_fish_1.png	B	0	0	0	486.71512529999	486.91509689996
124761	100	557	15	0	43	17	6	3	0	0	0	stim007_stimuli_original_animals_fish_3.png	D	0	0	0	487.115109699895	487.315124099958
124861	100	558	15	0	43	18	3	6	0	0	0	stim004_stimuli_original_animals_birds_4.png	G	0	0	0	487.515118799987	487.715117499931
124961	100	559	15	0	43	19	1	4	0	0	0	stim002_stimuli_original_animals_birds_2.png	E	0	0	0	487.915129399975	488.115129699931
125061	100	560	15	0	43	20	13	11	0	0	0	stim014_stimuli_original_vehicles_planes_2.png	R	0	0	0	488.315140299965	488.515141399927
125161	100	561	15	0	43	21	14	7	0	0	0	stim015_stimuli_original_vehicles_planes_3.png	J	0	0	0	488.715152499964	488.915151099907
125261	100	562	15	0	43	22	2	5	0	0	0	stim003_stimuli_original_animals_birds_3.png	F	0	0	0	489.115160699934	489.315179999918
125361	100	563	15	0	43	23	4	12	0	1	0	stim005_stimuli_original_animals_fish_1.png	T	0	0	0	489.515175699955	489.715171899996
125461	100	564	15	0	43	24	15	9	0	0	0	stim016_stimuli_original_vehicles_planes_4.png	L	0	0	0	489.9151959999	490.11518339999
125561	100	565	15	0	43	25	2	12	1	1	0	stim003_stimuli_original_animals_birds_3.png	T	0	0	0	490.315194399911	490.51519559999
125661	100	566	15	0	43	26	5	1	0	0	0	stim006_stimuli_original_animals_fish_2.png	B	0	0	0	490.715204999899	490.915203399956
125761	100	567	15	0	43	27	2	13	1	0	1	stim003_stimuli_original_animals_birds_3.png	U	0	0	0	491.115216300008	491.315214899951
125861	100	568	15	0	43	28	7	2	0	0	0	stim008_stimuli_original_animals_fish_4.png	C	0	0	0	491.515245499904	491.715227399953
125961	100	569	15	0	43	29	11	14	0	0	0	stim012_stimuli_original_vehicles_boats_4.png	V	f	491.907770299935	1	491.91524709994	492.115237399936
126061	100	570	15	0	43	30	10	15	0	0	0	stim011_stimuli_original_vehicles_boats_3.png	Y	0	0	0	492.315248099971	492.515253299964
126161	100	571	15	0	43	31	12	12	0	0	0	stim013_stimuli_original_vehicles_planes_1.png	T	0	0	0	492.715256499941	492.915257799905
126261	100	572	15	0	43	32	9	3	0	0	0	stim010_stimuli_original_vehicles_boats_2.png	D	0	0	0	493.115270199953	493.315267600003
126361	100	573	15	0	43	33	6	0	0	0	0	stim007_stimuli_original_animals_fish_3.png	A	0	0	0	493.515278999927	493.715279099997
126461	100	574	15	0	43	34	8	8	0	0	0	stim009_stimuli_original_vehicles_boats_1.png	K	0	0	0	493.915290299919	494.115319099976
126561	100	575	15	0	43	35	0	10	0	0	0	stim001_stimuli_original_animals_birds_1.png	Q	0	0	0	494.315304499934	494.515300599975
128352.75	100	576	16	1	8	0	8	7	0	0	0	stim009_stimuli_original_vehicles_boats_1.png	J	0	0	0	501.482169099967	501.682163199992
128452.75	100	577	16	1	8	1	12	0	0	0	0	stim013_stimuli_original_vehicles_planes_1.png	A	0	0	0	501.88219179993	502.082173499977
128552.75	100	578	16	1	8	2	10	11	0	0	0	stim011_stimuli_original_vehicles_boats_3.png	R	0	0	0	502.282184299896	502.482182699954
128652.75	100	579	16	1	8	3	7	12	0	0	0	stim008_stimuli_original_animals_fish_4.png	T	0	0	0	502.682194299996	502.882194699952
128752.75	100	580	16	1	8	4	15	1	0	0	0	stim016_stimuli_original_vehicles_planes_4.png	B	0	0	0	503.082209799904	503.282205399941
128852.75	100	581	16	1	8	5	2	4	0	0	0	stim003_stimuli_original_animals_birds_3.png	E	0	0	0	503.482216399978	503.682215299923
128952.75	100	582	16	1	8	6	13	2	0	0	0	stim014_stimuli_original_vehicles_planes_2.png	C	0	0	0	503.882230099989	504.082232499961
129052.75	100	583	16	1	8	7	9	15	0	0	0	stim010_stimuli_original_vehicles_boats_2.png	Y	0	0	0	504.282238599961	504.482237299904
129152.75	100	584	16	1	8	8	1	3	0	0	0	stim002_stimuli_original_animals_birds_2.png	D	0	0	0	504.682248599944	504.882251899922
129252.75	100	585	16	1	8	9	0	14	0	0	0	stim001_stimuli_original_animals_birds_1.png	V	0	0	0	505.082269799896	505.282260000007
129352.75	100	586	16	1	8	10	13	6	1	0	0	stim014_stimuli_original_vehicles_planes_2.png	G	0	0	0	505.482269099914	505.682270999998
129452.75	100	587	16	1	8	11	5	9	0	0	0	stim006_stimuli_original_animals_fish_2.png	L	0	0	0	505.882280299906	506.082282799995
129552.75	100	588	16	1	8	12	13	2	1	1	0	stim014_stimuli_original_vehicles_planes_2.png	C	0	0	0	506.282307899906	506.482289999956
129652.75	100	589	16	1	8	13	11	13	0	0	0	stim012_stimuli_original_vehicles_boats_4.png	U	0	0	0	506.682303799898	506.882302399958
129752.75	100	590	16	1	8	14	6	2	0	1	1	stim007_stimuli_original_animals_fish_3.png	C	0	0	0	507.082314300002	507.282312099938
129852.75	100	591	16	1	8	15	3	10	0	0	0	stim004_stimuli_original_animals_birds_4.png	Q	0	0	0	507.48232369998	507.682324299938
129952.75	100	592	16	1	8	16	14	5	0	0	0	stim015_stimuli_original_vehicles_planes_3.png	F	0	0	0	507.882333199959	508.082333499915
130052.75	100	593	16	1	8	17	4	8	0	0	0	stim005_stimuli_original_animals_fish_1.png	K	0	0	0	508.282343399944	508.482343099895
130152.75	100	594	16	1	8	18	8	4	0	0	0	stim009_stimuli_original_vehicles_boats_1.png	E	0	0	0	508.68235769996	508.882354900008
130252.75	100	595	16	1	8	19	5	14	0	0	0	stim006_stimuli_original_animals_fish_2.png	V	0	0	0	509.082367699943	509.282366600004
130352.75	100	596	16	1	8	20	10	3	0	0	0	stim011_stimuli_original_vehicles_boats_3.png	D	0	0	0	509.48237699992	509.682378099998
130452.75	100	597	16	1	8	21	2	6	1	0	0	stim003_stimuli_original_animals_birds_3.png	G	0	0	0	509.882388899918	510.082386299968
130552.75	100	598	16	1	8	22	13	11	0	0	0	stim014_stimuli_original_vehicles_planes_2.png	R	0	0	0	510.282397200004	510.482397899963
130652.75	100	599	16	1	8	23	2	13	1	1	0	stim003_stimuli_original_animals_birds_3.png	U	0	0	0	510.68241369992	510.882408999954
130752.75	100	600	16	1	8	24	9	5	0	0	0	stim010_stimuli_original_vehicles_boats_2.png	F	0	0	0	511.0824211	511.282419499941
130852.75	100	601	16	1	8	25	6	13	0	1	1	stim007_stimuli_original_animals_fish_3.png	U	0	0	0	511.482440099935	511.682432199945
130952.75	100	602	16	1	8	26	14	0	0	0	0	stim015_stimuli_original_vehicles_planes_3.png	A	f	512.074230199913	1	511.882440499961	512.082442399929
131052.75	100	603	16	1	8	27	3	1	0	0	0	stim004_stimuli_original_animals_birds_4.png	B	0	0	0	512.282453199965	512.482453999924
131152.75	100	604	16	1	8	28	15	9	0	0	0	stim016_stimuli_original_vehicles_planes_4.png	L	0	0	0	512.682463299949	512.882462699898
131252.75	100	605	16	1	8	29	2	13	0	0	0	stim003_stimuli_original_animals_birds_3.png	U	0	0	0	513.082515599905	513.282475699903
131352.75	100	606	16	1	8	30	4	2	0	0	0	stim005_stimuli_original_animals_fish_1.png	C	0	0	0	513.482483799919	513.682487099897
131452.75	100	607	16	1	8	31	1	15	0	0	0	stim002_stimuli_original_animals_birds_2.png	Y	0	0	0	513.882494299905	514.082494599978
131552.75	100	608	16	1	8	32	12	7	0	0	0	stim013_stimuli_original_vehicles_planes_1.png	J	0	0	0	514.282503800001	514.482503999956
131652.75	100	609	16	1	8	33	11	10	0	0	0	stim012_stimuli_original_vehicles_boats_4.png	Q	0	0	0	514.682516800007	514.882515199948
131752.75	100	610	16	1	8	34	0	12	0	0	0	stim001_stimuli_original_animals_birds_1.png	T	0	0	0	515.082526699989	515.282527099946
131852.75	100	611	16	1	8	35	7	8	0	0	0	stim008_stimuli_original_animals_fish_4.png	K	0	0	0	515.48253779998	515.682537699933
134502.75	100	612	17	0	9	0	5	7	0	0	0	stim006_stimuli_original_animals_fish_2.png	J	0	0	0	526.082850999897	526.282846599934
134602.75	100	613	17	0	9	1	4	8	0	0	0	stim005_stimuli_original_animals_fish_1.png	K	0	0	0	526.482859899988	526.682856499916
134702.75	100	614	17	0	9	2	6	1	0	0	0	stim007_stimuli_original_animals_fish_3.png	B	0	0	0	526.882859000005	527.082867799909
134803	100	615	17	0	9	3	14	3	0	0	0	stim015_stimuli_original_vehicles_planes_3.png	D	0	0	0	527.282904099906	527.482879699906
134903	100	616	17	0	9	4	15	15	0	0	0	stim016_stimuli_original_vehicles_planes_4.png	Y	0	0	0	527.682874599937	527.88288759999
135003	100	617	17	0	9	5	11	14	1	0	0	stim012_stimuli_original_vehicles_boats_4.png	V	0	0	0	528.082898799912	528.282902699895
135103	100	618	17	0	9	6	13	6	0	0	0	stim014_stimuli_original_vehicles_planes_2.png	G	0	0	0	528.482914599939	528.682909999974
135203	100	619	17	0	9	7	11	12	1	0	1	stim012_stimuli_original_vehicles_boats_4.png	T	0	0	0	528.882924799924	529.082922199974
135303	100	620	17	0	9	8	7	11	0	0	0	stim008_stimuli_original_animals_fish_4.png	R	0	0	0	529.28293300001	529.48292729992
135403	100	621	17	0	9	9	8	5	0	0	0	stim009_stimuli_original_vehicles_boats_1.png	F	f	529.675484899897	1	529.682944100001	529.882948599989
135503	100	622	17	0	9	10	10	0	0	0	0	stim011_stimuli_original_vehicles_boats_3.png	A	0	0	0	530.082948199939	530.282952799927
135603	100	623	17	0	9	11	1	2	0	0	0	stim002_stimuli_original_animals_birds_2.png	C	0	0	0	530.48296579998	530.682950499933
135703	100	624	17	0	9	12	9	15	0	1	0	stim010_stimuli_original_vehicles_boats_2.png	Y	0	0	0	530.882994399988	531.082977999933
135803	100	625	17	0	9	13	0	9	0	0	0	stim001_stimuli_original_animals_birds_1.png	L	0	0	0	531.282985799946	531.482984900009
135903	100	626	17	0	9	14	11	15	0	1	0	stim012_stimuli_original_vehicles_boats_4.png	Y	0	0	0	531.682999799959	531.8829807
136003	100	627	17	0	9	15	3	10	0	0	0	stim004_stimuli_original_animals_birds_4.png	Q	0	0	0	532.082983199973	532.283007699996
136103	100	628	17	0	9	16	12	13	0	0	0	stim013_stimuli_original_vehicles_planes_1.png	U	0	0	0	532.483018699917	532.683004099992
136203	100	629	17	0	9	17	2	4	0	0	0	stim003_stimuli_original_animals_birds_3.png	E	0	0	0	532.883026800002	533.08302869997
136303	100	630	17	0	9	18	4	2	0	0	0	stim005_stimuli_original_animals_fish_1.png	C	0	0	0	533.283014999935	533.483026099973
136403	100	631	17	0	9	19	13	12	0	0	0	stim014_stimuli_original_vehicles_planes_2.png	T	0	0	0	533.683052399894	533.883047499927
136503	100	632	17	0	9	20	10	3	0	0	0	stim011_stimuli_original_vehicles_boats_3.png	D	0	0	0	534.083058199962	534.283063599956
136603	100	633	17	0	9	21	15	11	1	0	0	stim016_stimuli_original_vehicles_planes_4.png	R	f	534.47565909999	0	534.483076500008	534.6830683999
136703	100	634	17	0	9	22	9	0	0	0	0	stim010_stimuli_original_vehicles_boats_2.png	A	0	0	0	534.883086699992	535.083086099941
136803	100	635	17	0	9	23	15	9	1	0	1	stim016_stimuli_original_vehicles_planes_4.png	L	0	0	0	535.283098199987	535.48307889991
136903	100	636	17	0	9	24	2	1	0	0	0	stim003_stimuli_original_animals_birds_3.png	B	0	0	0	535.683103499934	535.883106599911
137003	100	637	17	0	9	25	0	10	0	0	0	stim001_stimuli_original_animals_birds_1.png	Q	0	0	0	536.083118999959	536.28311259998
137103	100	638	17	0	9	26	5	8	0	0	0	stim006_stimuli_original_animals_fish_2.png	K	0	0	0	536.483123899903	536.683107099961
137203	100	639	17	0	9	27	11	7	0	0	0	stim012_stimuli_original_vehicles_boats_4.png	J	f	537.074919699924	1	536.883136099903	537.083135199966
137303	100	640	17	0	9	28	12	11	0	1	0	stim013_stimuli_original_vehicles_planes_1.png	R	0	0	0	537.283162000007	537.483146999963
137403	100	641	17	0	9	29	6	13	0	0	0	stim007_stimuli_original_animals_fish_3.png	U	0	0	0	537.683159899898	537.883154499927
137503	100	642	17	0	9	30	14	11	0	1	0	stim015_stimuli_original_vehicles_planes_3.png	R	0	0	0	538.083159599919	538.283168899943
137603	100	643	17	0	9	31	15	15	0	0	0	stim016_stimuli_original_vehicles_planes_4.png	Y	0	0	0	538.483179599978	538.683177599916
137703	100	644	17	0	9	32	3	14	0	0	0	stim004_stimuli_original_animals_birds_4.png	V	0	0	0	538.883177099982	539.083190599922
137803	100	645	17	0	9	33	1	6	0	0	0	stim002_stimuli_original_animals_birds_2.png	G	0	0	0	539.28317379998	539.483199299895
137903	100	646	17	0	9	34	8	4	0	0	0	stim009_stimuli_original_vehicles_boats_1.png	E	0	0	0	539.683181099943	539.883180400007
138003	100	647	17	0	9	35	7	5	0	0	0	stim008_stimuli_original_animals_fish_4.png	F	0	0	0	540.083208499942	540.283190799993
145565.75	100	648	18	1	13	0	14	1	0	0	0	stim015_stimuli_original_vehicles_planes_3.png	B	0	0	0	570.33403649996	570.534025399946
145665.75	100	649	18	1	13	1	3	2	0	0	0	stim004_stimuli_original_animals_birds_4.png	C	0	0	0	570.734038399998	570.93404959992
145765.75	100	650	18	1	13	2	13	13	0	0	0	stim014_stimuli_original_vehicles_planes_2.png	U	0	0	0	571.134059699951	571.334057300002
145865.75	100	651	18	1	13	3	0	3	0	0	0	stim001_stimuli_original_animals_birds_1.png	D	0	0	0	571.53408709995	571.734071099898
145965.75	100	652	18	1	13	4	9	4	0	0	0	stim010_stimuli_original_vehicles_boats_2.png	E	0	0	0	571.934076699894	572.134080599993
146065.75	100	653	18	1	13	5	11	0	0	0	0	stim012_stimuli_original_vehicles_boats_4.png	A	0	0	0	572.334089799901	572.53408849996
146165.75	100	654	18	1	13	6	12	12	0	0	0	stim013_stimuli_original_vehicles_planes_1.png	T	0	0	0	572.734099499998	572.934099199949
146265.75	100	655	18	1	13	7	2	10	0	0	0	stim003_stimuli_original_animals_birds_3.png	Q	0	0	0	573.134110499988	573.334110599943
146365.75	100	656	18	1	13	8	1	4	0	1	0	stim002_stimuli_original_animals_birds_2.png	E	0	0	0	573.534123499994	573.734117899905
146465.75	100	657	18	1	13	9	8	9	0	0	0	stim009_stimuli_original_vehicles_boats_1.png	L	0	0	0	573.934117199969	574.134141199989
146565.75	100	658	18	1	13	10	2	4	1	1	1	stim003_stimuli_original_animals_birds_3.png	E	0	0	0	574.334143999964	574.534141799901
146665.75	100	659	18	1	13	11	5	15	0	0	0	stim006_stimuli_original_animals_fish_2.png	Y	0	0	0	574.734156499966	574.934152300004
146765.75	100	660	18	1	13	12	2	7	1	0	0	stim003_stimuli_original_animals_birds_3.png	J	f	575.126724299975	1	575.134166299948	575.334163399995
146865.75	100	661	18	1	13	13	7	6	0	0	0	stim008_stimuli_original_animals_fish_4.png	G	0	0	0	575.534173099906	575.734173399978
146965.75	100	662	18	1	13	14	4	11	0	0	0	stim005_stimuli_original_animals_fish_1.png	R	0	0	0	575.934184399899	576.134188199998
147065.75	100	663	18	1	13	15	10	8	0	0	0	stim011_stimuli_original_vehicles_boats_3.png	K	0	0	0	576.334165899898	576.534197899979
147165.75	100	664	18	1	13	16	6	14	0	0	0	stim007_stimuli_original_animals_fish_3.png	V	0	0	0	576.734223000007	576.934194799978
147265.75	100	665	18	1	13	17	15	5	0	0	0	stim016_stimuli_original_vehicles_planes_4.png	F	0	0	0	577.134216899984	577.334218899952
147365.75	100	666	18	1	13	18	5	15	0	0	0	stim006_stimuli_original_animals_fish_2.png	Y	0	0	0	577.534227799973	577.734226399916
147465.75	100	667	18	1	13	19	14	6	0	0	0	stim015_stimuli_original_vehicles_planes_3.png	G	0	0	0	577.934235799941	578.134227599949
147565.75	100	668	18	1	13	20	8	10	0	0	0	stim009_stimuli_original_vehicles_boats_1.png	Q	0	0	0	578.334248899948	578.534254999948
147665.75	100	669	18	1	13	21	11	4	0	0	0	stim012_stimuli_original_vehicles_boats_4.png	E	0	0	0	578.73426009994	578.934263099916
147765.75	100	670	18	1	13	22	6	7	0	0	0	stim007_stimuli_original_animals_fish_3.png	J	0	0	0	579.134270499926	579.334272000007
147865.75	100	671	18	1	13	23	7	2	0	1	0	stim008_stimuli_original_animals_fish_4.png	C	0	0	0	579.534273699974	579.7342853999
147965.75	100	672	18	1	13	24	15	5	0	0	0	stim016_stimuli_original_vehicles_planes_4.png	F	0	0	0	579.934292599908	580.134292199975
148065.75	100	673	18	1	13	25	4	2	1	1	1	stim005_stimuli_original_animals_fish_1.png	C	0	0	0	580.334303099895	580.534303899971
148165.75	100	674	18	1	13	26	9	8	0	0	0	stim010_stimuli_original_vehicles_boats_2.png	K	f	580.938628199976	1	580.73431510001	580.934316099971
148265.75	100	675	18	1	13	27	4	1	1	0	0	stim005_stimuli_original_animals_fish_1.png	B	0	0	0	581.134310699999	581.334306999925
148365.75	100	676	18	1	13	28	10	2	0	0	0	stim011_stimuli_original_vehicles_boats_3.png	C	0	0	0	581.534343299922	581.734314800007
148465.75	100	677	18	1	13	29	12	12	0	0	0	stim013_stimuli_original_vehicles_planes_1.png	T	0	0	0	581.934331099968	582.134341199999
148565.75	100	678	18	1	13	30	0	11	0	0	0	stim001_stimuli_original_animals_birds_1.png	R	0	0	0	582.334335299907	582.534337299992
148665.75	100	679	18	1	13	31	4	9	0	0	0	stim005_stimuli_original_animals_fish_1.png	L	0	0	0	582.734347599908	582.934348699986
148765.75	100	680	18	1	13	32	3	0	0	0	0	stim004_stimuli_original_animals_birds_4.png	A	0	0	0	583.134357000003	583.334356399952
148865.75	100	681	18	1	13	33	13	13	0	0	0	stim014_stimuli_original_vehicles_planes_2.png	U	0	0	0	583.534369400004	583.734374399995
148965.75	100	682	18	1	13	34	2	3	0	0	0	stim003_stimuli_original_animals_birds_3.png	D	0	0	0	583.934377899976	584.134390299907
149065.75	100	683	18	1	13	35	1	14	0	0	0	stim002_stimuli_original_animals_birds_2.png	V	0	0	0	584.334392199991	584.534390599933
150799	100	684	19	0	38	0	1	12	0	0	0	stim002_stimuli_original_animals_birds_2.png	T	0	0	0	591.267919000005	591.467923999997
150899	100	685	19	0	38	1	8	15	0	0	0	stim009_stimuli_original_vehicles_boats_1.png	Y	0	0	0	591.66798779997	591.867933299975
150999	100	686	19	0	38	2	15	2	0	0	0	stim016_stimuli_original_vehicles_planes_4.png	C	0	0	0	592.067946999916	592.267945899977
151099	100	687	19	0	38	3	0	7	0	0	0	stim001_stimuli_original_animals_birds_1.png	J	0	0	0	592.467954399996	592.667955099954
151199	100	688	19	0	38	4	10	5	1	0	0	stim011_stimuli_original_vehicles_boats_3.png	F	0	0	0	592.867969699902	593.067965899943
151299	100	689	19	0	38	5	9	11	0	0	0	stim010_stimuli_original_vehicles_boats_2.png	R	0	0	0	593.267991699977	593.467974899919
151399	100	690	19	0	38	6	10	6	1	0	1	stim011_stimuli_original_vehicles_boats_3.png	G	0	0	0	593.667985299951	593.867992099957
151499	100	691	19	0	38	7	12	7	0	1	0	stim013_stimuli_original_vehicles_planes_1.png	J	0	0	0	594.067994899931	594.267985999933
151599	100	692	19	0	38	8	11	0	0	0	0	stim012_stimuli_original_vehicles_boats_4.png	A	0	0	0	594.46800819994	594.667993399897
151699	100	693	19	0	38	9	14	7	0	1	0	stim015_stimuli_original_vehicles_planes_3.png	J	0	0	0	594.868018499925	595.068003399996
151799	100	694	19	0	38	10	5	1	0	0	0	stim006_stimuli_original_animals_fish_2.png	B	0	0	0	595.26803399995	595.468023099937
151899	100	695	19	0	38	11	3	3	0	0	0	stim004_stimuli_original_animals_birds_4.png	D	a	595.859827199951	1	595.668040299905	595.868048899923
151999	100	696	19	0	38	12	13	4	0	0	0	stim014_stimuli_original_vehicles_planes_2.png	E	0	0	0	596.068052099901	596.268037499976
152099.25	100	697	19	0	38	13	10	14	0	0	0	stim011_stimuli_original_vehicles_boats_3.png	V	0	0	0	596.468049199902	596.668060099939
152199.25	100	698	19	0	38	14	2	10	0	0	0	stim003_stimuli_original_animals_birds_3.png	Q	0	0	0	596.868079499924	597.068071599933
152299.25	100	699	19	0	38	15	4	8	0	0	0	stim005_stimuli_original_animals_fish_1.png	K	0	0	0	597.268083999981	597.468084599939
152399.25	100	700	19	0	38	16	6	13	0	0	0	stim007_stimuli_original_animals_fish_3.png	U	0	0	0	597.66809469997	597.868093099911
152499.25	100	701	19	0	38	17	7	9	0	0	0	stim008_stimuli_original_animals_fish_4.png	L	0	0	0	598.068070799927	598.268105099909
152599.25	100	702	19	0	38	18	9	7	0	0	0	stim010_stimuli_original_vehicles_boats_2.png	J	0	0	0	598.4681232	598.668091399944
152699.25	100	703	19	0	38	19	13	6	0	0	0	stim014_stimuli_original_vehicles_planes_2.png	G	0	0	0	598.868123199907	599.068124699988
152799.25	100	704	19	0	38	20	8	4	0	0	0	stim009_stimuli_original_vehicles_boats_1.png	E	0	0	0	599.268137199921	599.468109799898
152899.25	100	705	19	0	38	21	10	2	0	0	0	stim011_stimuli_original_vehicles_boats_3.png	C	0	0	0	599.668129099999	599.868129799957
152999.25	100	706	19	0	38	22	14	10	0	0	0	stim015_stimuli_original_vehicles_planes_3.png	Q	0	0	0	600.068136899965	600.268131999997
153099.25	100	707	19	0	38	23	4	13	0	0	0	stim005_stimuli_original_animals_fish_1.png	U	0	0	0	600.46814329992	600.668170899968
153199.25	100	708	19	0	38	24	3	3	0	0	0	stim004_stimuli_original_animals_birds_4.png	D	0	0	0	600.868154399912	601.068167999969
153299.25	100	709	19	0	38	25	1	5	0	0	0	stim002_stimuli_original_animals_birds_2.png	F	0	0	0	601.268181399908	601.468162799953
153399.25	100	710	19	0	38	26	7	14	1	0	0	stim008_stimuli_original_animals_fish_4.png	V	0	0	0	601.668176100007	601.868175099953
153499.25	100	711	19	0	38	27	0	11	0	0	0	stim001_stimuli_original_animals_birds_1.png	R	0	0	0	602.068184399977	602.268184999935
153599.25	100	712	19	0	38	28	7	12	1	0	1	stim008_stimuli_original_animals_fish_4.png	T	0	0	0	602.468196699978	602.668194899918
153699.25	100	713	19	0	38	29	6	10	0	1	0	stim007_stimuli_original_animals_fish_3.png	Q	0	0	0	602.868208999978	603.068207699922
153799.25	100	714	19	0	38	30	11	9	0	0	0	stim012_stimuli_original_vehicles_boats_4.png	L	0	0	0	603.268238999997	603.468216899899
153899.25	100	715	19	0	38	31	5	10	0	1	0	stim006_stimuli_original_animals_fish_2.png	Q	a	603.860020699911	1	603.668228099938	603.868247099919
153999.25	100	716	19	0	38	32	7	0	0	0	0	stim008_stimuli_original_animals_fish_4.png	A	0	0	0	604.068241099943	604.268241799902
154099.25	100	717	19	0	38	33	2	15	0	0	0	stim003_stimuli_original_animals_birds_3.png	Y	0	0	0	604.468248599907	604.668248399976
154199.25	100	718	19	0	38	34	15	8	0	0	0	stim016_stimuli_original_vehicles_planes_4.png	K	0	0	0	604.868259499897	605.068259499967
154299.25	100	719	19	0	38	35	12	1	0	0	0	stim013_stimuli_original_vehicles_planes_1.png	B	0	0	0	605.268274299917	605.46833059995
162549.5	100	720	20	1	2	0	15	10	0	0	0	stim016_stimuli_original_vehicles_planes_4.png	Q	0	0	0	638.269168399973	638.469163500005
162649.5	100	721	20	1	2	1	13	7	0	0	0	stim014_stimuli_original_vehicles_planes_2.png	J	0	0	0	638.669175999938	638.869175500004
162749.5	100	722	20	1	2	2	8	8	0	0	0	stim009_stimuli_original_vehicles_boats_1.png	K	0	0	0	639.06918589992	639.269212699961
162849.5	100	723	20	1	2	3	2	6	0	0	0	stim003_stimuli_original_animals_birds_3.png	G	0	0	0	639.469197399914	639.669200300006
162949.5	100	724	20	1	2	4	1	5	0	0	0	stim002_stimuli_original_animals_birds_2.png	F	0	0	0	639.869227599935	640.069205299951
163049.5	100	725	20	1	2	5	0	9	0	0	0	stim001_stimuli_original_animals_birds_1.png	L	0	0	0	640.269220899907	640.469220299972
163149.5	100	726	20	1	2	6	5	0	0	0	0	stim006_stimuli_original_animals_fish_2.png	A	0	0	0	640.669228999992	640.869226599927
163249.5	100	727	20	1	2	7	10	14	0	0	0	stim011_stimuli_original_vehicles_boats_3.png	V	0	0	0	641.0692423	641.26923659991
163349.5	100	728	20	1	2	8	12	11	0	0	0	stim013_stimuli_original_vehicles_planes_1.png	R	0	0	0	641.469250999973	641.669248199905
163449.5	100	729	20	1	2	9	8	5	1	1	0	stim009_stimuli_original_vehicles_boats_1.png	F	0	0	0	641.869286499918	642.069258899894
163549.5	100	730	20	1	2	10	14	3	0	0	0	stim015_stimuli_original_vehicles_planes_3.png	D	0	0	0	642.269270599936	642.469277699944
163649.5	100	731	20	1	2	11	8	5	1	1	1	stim009_stimuli_original_vehicles_boats_1.png	F	0	0	0	642.669283799944	642.869281699997
163749.5	100	732	20	1	2	12	9	2	0	0	0	stim010_stimuli_original_vehicles_boats_2.png	C	f	643.261078699958	1	643.06929289992	643.269292799989
163849.5	100	733	20	1	2	13	3	4	0	0	0	stim004_stimuli_original_animals_birds_4.png	E	0	0	0	643.469304999919	643.669302799972
163949.5	100	734	20	1	2	14	7	12	0	0	0	stim008_stimuli_original_animals_fish_4.png	T	0	0	0	643.869313300005	644.069312499953
164049.5	100	735	20	1	2	15	11	15	0	0	0	stim012_stimuli_original_vehicles_boats_4.png	Y	0	0	0	644.269325500005	644.469343299977
164149.5	100	736	20	1	2	16	4	13	0	0	0	stim005_stimuli_original_animals_fish_1.png	U	0	0	0	644.669337500003	644.869333699928
164249.5	100	737	20	1	2	17	6	1	0	0	0	stim007_stimuli_original_animals_fish_3.png	B	0	0	0	645.069356799941	645.269347799942
164349.5	100	738	20	1	2	18	1	6	0	0	0	stim002_stimuli_original_animals_birds_2.png	G	0	0	0	645.469356699963	645.669354999904
164449.5	100	739	20	1	2	19	13	4	0	0	0	stim014_stimuli_original_vehicles_planes_2.png	E	0	0	0	645.869368099957	646.069374999963
164549.5	100	740	20	1	2	20	15	11	0	0	0	stim016_stimuli_original_vehicles_planes_4.png	R	0	0	0	646.269379799953	646.469376399997
164649.5	100	741	20	1	2	21	12	7	0	0	0	stim013_stimuli_original_vehicles_planes_1.png	J	0	0	0	646.669404199929	646.869387499988
164749.5	100	742	20	1	2	22	4	3	0	0	0	stim005_stimuli_original_animals_fish_1.png	D	0	0	0	647.06941529992	647.269402599894
164849.5	100	743	20	1	2	23	2	9	0	0	0	stim003_stimuli_original_animals_birds_3.png	L	0	0	0	647.469411899918	647.669421799947
164949.5	100	744	20	1	2	24	5	8	1	1	0	stim006_stimuli_original_animals_fish_2.png	K	0	0	0	647.869418899994	648.069420899963
165049.5	100	745	20	1	2	25	3	14	0	0	0	stim004_stimuli_original_animals_birds_4.png	V	f	648.461236499948	0	648.269429399981	648.469430899946
165149.5	100	746	20	1	2	26	5	8	1	1	1	stim006_stimuli_original_animals_fish_2.png	K	0	0	0	648.669443499995	648.869445299963
165249.5	100	747	20	1	2	27	11	12	0	0	0	stim012_stimuli_original_vehicles_boats_4.png	T	0	0	0	649.069454099983	649.269480899908
165349.5	100	748	20	1	2	28	14	10	0	0	0	stim015_stimuli_original_vehicles_planes_3.png	Q	0	0	0	649.469465399976	649.669462299906
165449.5	100	749	20	1	2	29	0	5	0	0	0	stim001_stimuli_original_animals_birds_1.png	F	0	0	0	649.86950349994	650.069474999909
165549.5	100	750	20	1	2	30	9	0	0	0	0	stim010_stimuli_original_vehicles_boats_2.png	A	0	0	0	650.269484099932	650.46948259999
165649.5	100	751	20	1	2	31	5	1	0	0	0	stim006_stimuli_original_animals_fish_2.png	B	0	0	0	650.669493699912	650.869492399972
165749.5	100	752	20	1	2	32	6	2	0	0	0	stim007_stimuli_original_animals_fish_3.png	C	0	0	0	651.069507699925	651.269502899959
165849.5	100	753	20	1	2	33	8	8	0	0	0	stim009_stimuli_original_vehicles_boats_1.png	K	0	0	0	651.469516199897	651.669516099966
165949.5	100	754	20	1	2	34	7	13	0	0	0	stim008_stimuli_original_animals_fish_4.png	U	0	0	0	651.869555799989	652.069525099942
166049.5	100	755	20	1	2	35	10	15	0	0	0	stim011_stimuli_original_vehicles_boats_3.png	Y	0	0	0	652.269537499989	652.469546000008
168645.25	100	756	21	0	31	0	4	14	0	0	0	stim005_stimuli_original_animals_fish_1.png	V	0	0	0	662.653138899943	662.853135599988
168745.25	100	757	21	0	31	1	3	12	0	0	0	stim004_stimuli_original_animals_birds_4.png	T	0	0	0	663.053147799917	663.253147399984
168845.25	100	758	21	0	31	2	1	7	0	0	0	stim002_stimuli_original_animals_birds_2.png	J	0	0	0	663.453158799908	663.653157599969
168945.25	100	759	21	0	31	3	2	11	0	0	0	stim003_stimuli_original_animals_birds_3.png	R	0	0	0	663.853172399919	664.053169599967
169045.25	100	760	21	0	31	4	15	8	0	0	0	stim016_stimuli_original_vehicles_planes_4.png	K	0	0	0	664.253178999992	664.453194999951
169145.25	100	761	21	0	31	5	14	6	0	0	0	stim015_stimuli_original_vehicles_planes_3.png	G	0	0	0	664.653191799996	664.853189599933
169245.5	100	762	21	0	31	6	6	3	0	0	0	stim007_stimuli_original_animals_fish_3.png	D	0	0	0	665.053221000009	665.253202299937
169345.25	100	763	21	0	31	7	0	10	0	0	0	stim001_stimuli_original_animals_birds_1.png	Q	0	0	0	665.45321009995	665.653210599907
169445.5	100	764	21	0	31	8	10	5	1	0	0	stim011_stimuli_original_vehicles_boats_3.png	F	0	0	0	665.853227199987	666.053221499897
169545.5	100	765	21	0	31	9	13	2	0	0	0	stim014_stimuli_original_vehicles_planes_2.png	C	0	0	0	666.253233899944	666.453232
169645.5	100	766	21	0	31	10	10	9	1	0	1	stim011_stimuli_original_vehicles_boats_3.png	L	0	0	0	666.653246499947	666.853245000006
169745.5	100	767	21	0	31	11	7	13	0	0	0	stim008_stimuli_original_animals_fish_4.png	U	0	0	0	667.053266800009	667.25325379998
169845.5	100	768	21	0	31	12	8	6	0	1	0	stim009_stimuli_original_vehicles_boats_1.png	G	f	667.445810599951	1	667.453267099918	667.653278399957
169945.5	100	769	21	0	31	13	12	4	0	0	0	stim013_stimuli_original_vehicles_planes_1.png	E	0	0	0	667.853273899993	668.053276899969
170045.5	100	770	21	0	31	14	10	6	0	1	0	stim011_stimuli_original_vehicles_boats_3.png	G	0	0	0	668.253285599989	668.453285999945
170145.5	100	771	21	0	31	15	5	1	0	0	0	stim006_stimuli_original_animals_fish_2.png	B	0	0	0	668.653298999998	668.85329619993
170245.5	100	772	21	0	31	16	9	0	0	0	0	stim010_stimuli_original_vehicles_boats_2.png	A	0	0	0	669.053309499985	669.253329399973
170345.5	100	773	21	0	31	17	11	15	0	0	0	stim012_stimuli_original_vehicles_boats_4.png	Y	0	0	0	669.453317699954	669.653321599937
170445.5	100	774	21	0	31	18	15	11	0	0	0	stim016_stimuli_original_vehicles_planes_4.png	R	0	0	0	669.853347699973	670.053329699906
170545.5	100	775	21	0	31	19	0	9	0	0	0	stim001_stimuli_original_animals_birds_1.png	L	0	0	0	670.253344099969	670.453339800006
170645.5	100	776	21	0	31	20	1	5	0	0	0	stim002_stimuli_original_animals_birds_2.png	F	0	0	0	670.653352199937	670.853350599995
170745.5	100	777	21	0	31	21	6	10	1	0	0	stim007_stimuli_original_animals_fish_3.png	Q	0	0	0	671.053360499907	671.253361799987
170845.5	100	778	21	0	31	22	4	12	0	0	0	stim005_stimuli_original_animals_fish_1.png	T	0	0	0	671.453373799915	671.653372499975
170945.5	100	779	21	0	31	23	6	8	1	0	1	stim007_stimuli_original_animals_fish_3.png	K	0	0	0	671.853412600001	672.053382399958
171045.5	100	780	21	0	31	24	13	7	0	0	0	stim014_stimuli_original_vehicles_planes_2.png	J	0	0	0	672.253394400002	672.453408699948
171145.5	100	781	21	0	31	25	9	10	0	1	0	stim010_stimuli_original_vehicles_boats_2.png	Q	f	672.645937899943	1	672.653403999982	672.853404899943
171245.5	100	782	21	0	31	26	2	13	0	0	0	stim003_stimuli_original_animals_birds_3.png	U	0	0	0	673.053415099974	673.253413899918
171345.5	100	783	21	0	31	27	5	10	0	1	0	stim006_stimuli_original_animals_fish_2.png	Q	0	0	0	673.453428299981	673.653425199911
171445.5	100	784	21	0	31	28	10	0	0	0	0	stim011_stimuli_original_vehicles_boats_3.png	A	0	0	0	673.853441399988	674.053438699921
171545.5	100	785	21	0	31	29	3	6	0	0	0	stim004_stimuli_original_animals_birds_4.png	G	0	0	0	674.253446399933	674.45346479991
171645.5	100	786	21	0	31	30	6	14	0	0	0	stim007_stimuli_original_animals_fish_3.png	V	0	0	0	674.653458199929	674.85346969997
171745.5	100	787	21	0	31	31	8	15	0	0	0	stim009_stimuli_original_vehicles_boats_1.png	Y	0	0	0	675.053485599929	675.253467699979
171845.5	100	788	21	0	31	32	11	2	0	0	0	stim012_stimuli_original_vehicles_boats_4.png	C	0	0	0	675.453480299911	675.653478499968
171945.5	100	789	21	0	31	33	7	1	0	0	0	stim008_stimuli_original_animals_fish_4.png	B	0	0	0	675.853490100009	676.053489799961
172045.5	100	790	21	0	31	34	12	3	0	0	0	stim013_stimuli_original_vehicles_planes_1.png	D	0	0	0	676.253499299986	676.453498599934
172145.5	100	791	21	0	31	35	14	4	0	0	0	stim015_stimuli_original_vehicles_planes_3.png	E	0	0	0	676.653514400008	676.853510099929
177795.5	100	792	22	1	28	0	12	12	0	0	0	stim013_stimuli_original_vehicles_planes_1.png	T	0	0	0	699.254135499941	699.454116499983
177895.5	100	793	22	1	28	1	1	2	0	0	0	stim002_stimuli_original_animals_birds_2.png	C	0	0	0	699.654130399926	699.854125199956
177995.5	100	794	22	1	28	2	8	11	0	0	0	stim009_stimuli_original_vehicles_boats_1.png	R	0	0	0	700.05413579999	700.254136299947
178095.5	100	795	22	1	28	3	0	4	0	0	0	stim001_stimuli_original_animals_birds_1.png	E	0	0	0	700.454146499978	700.654149099952
178195.5	100	796	22	1	28	4	7	8	0	0	0	stim008_stimuli_original_animals_fish_4.png	K	0	0	0	700.85415889998	701.054155999911
178295.5	100	797	22	1	28	5	3	14	0	0	0	stim004_stimuli_original_animals_birds_4.png	V	0	0	0	701.254179699928	701.454166599899
178395.5	100	798	22	1	28	6	9	3	0	0	0	stim010_stimuli_original_vehicles_boats_2.png	D	0	0	0	701.654177999939	701.854181199917
178495.5	100	799	22	1	28	7	15	13	0	0	0	stim016_stimuli_original_vehicles_planes_4.png	U	0	0	0	702.054190899944	702.254196399939
178595.5	100	800	22	1	28	8	2	10	0	0	0	stim003_stimuli_original_animals_birds_3.png	Q	0	0	0	702.454199699918	702.654200499994
